File: data/exports/GaAs_30kV_50pA.emsa
#FORMAT      : EMSA/MAS Spectral Data File
#VERSION     : 1.0
#TITLE       : GaAs_30kV_50pA
#DATE        : 08-MAR-2023
#TIME        : 14:28
#OWNER       :
#NPOINTS     : 2048.0
#NCOLUMNS    : 1.0
#XUNITS      : keV
#YUNITS      : counts
#DATATYPE    : XY
#XPERCHAN    : 0.01
#OFFSET      : -0.2
#SIGNALTYPE  : EDS
#CHOFFSET    : 20.0
#LIVETIME    : 120.0
#REALTIME    : 213.231
#BEAMKV      : 30.0
#MAGCAM      : 9788.0
#XTILTSTGE   : 0.0
#AZIMANGLE   : 0.0
#ELEVANGLE   : 35.0
#XPOSITION mm: -8.2468
#YPOSITION mm: -4.3752
#ZPOSITION mm: 10.0002
##OXINSTPT   : 6
##OXINSTSTROB: 32.23
##OXINSTNDET : 1
##OXINSTELEMS: 25,26,27,28,29,13,6,8
##OXINSTLABEL: 25, 5.899, Mn
##OXINSTLABEL: 25, 6.490, Mn
##OXINSTLABEL: 25, 0.636, Mn
##OXINSTLABEL: 25, 0.556, Mn
##OXINSTLABEL: 26, 6.404, Fe
##OXINSTLABEL: 26, 7.058, Fe
##OXINSTLABEL: 26, 0.703, Fe
##OXINSTLABEL: 26, 0.615, Fe
##OXINSTLABEL: 27, 6.930, Co
##OXINSTLABEL: 27, 7.650, Co
##OXINSTLABEL: 27, 0.776, Co
##OXINSTLABEL: 27, 0.694, Co
##OXINSTLABEL: 27, 0.678, Co
##OXINSTLABEL: 28, 7.478, Ni
##OXINSTLABEL: 28, 8.265, Ni
##OXINSTLABEL: 28, 0.851, Ni
##OXINSTLABEL: 28, 0.762, Ni
##OXINSTLABEL: 28, 0.743, Ni
##OXINSTLABEL: 29, 8.048, Cu
##OXINSTLABEL: 29, 8.905, Cu
##OXINSTLABEL: 29, 0.930, Cu
##OXINSTLABEL: 29, 0.832, Cu
##OXINSTLABEL: 29, 0.811, Cu
##OXINSTLABEL: 13, 1.487, Al
##OXINSTLABEL: 6, 0.277, C
##OXINSTLABEL: 8, 0.525, O
#SPECTRUM    : Spectral Data Starts Here
-0.20000, 0.0
-0.18000, 0.0
-0.16000, 0.0
-0.14000, 0.0
-0.12000, 0.0
-0.10000, 0.0
-0.08000, 3.0
-0.06000, 40.0
-0.04000, 181.0
-0.02000, 1923.0
0.00000, 8705.0
0.02000, 7792.0
0.04000, 1395.0
0.06000, 152.0
0.08000, 165.0
0.10000, 181.0
0.12000, 158.0
0.14000, 160.0
0.16000, 169.0
0.18000, 176.0
0.20000, 199.0
0.22000, 259.0
0.24000, 557.0
0.26000, 1072.0
0.28000, 989.0
0.30000, 427.0
0.32000, 170.0
0.34000, 175.0
0.36000, 193.0
0.38000, 213.0
0.40000, 224.0
0.42000, 249.0
0.44000, 268.0
0.46000, 335.0
0.48000, 362.0
0.50000, 424.0
0.52000, 508.0
0.54000, 439.0
0.56000, 457.0
0.58000, 451.0
0.60000, 527.0
0.62000, 592.0
0.64000, 615.0
0.66000, 641.0
0.68000, 671.0
0.70000, 736.0
0.72000, 775.0
0.74000, 835.0
0.76000, 907.0
0.78000, 974.0
0.80000, 995.0
0.82000, 1107.0
0.84000, 1165.0
0.86000, 1213.0
0.88000, 1360.0
0.90000, 1583.0
0.92000, 2260.0
0.94000, 3298.0
0.96000, 4184.0
0.98000, 4123.0
1.00000, 3506.0
1.02000, 3413.0
1.04000, 6382.0
1.06000, 16733.0
1.08000, 37116.0
1.10000, 53309.0
1.12000, 48084.0
1.14000, 28166.0
1.16000, 11394.0
1.18000, 3778.0
1.20000, 1802.0
1.22000, 2428.0
1.24000, 5740.0
1.26000, 12616.0
1.28000, 19540.0
1.30000, 20489.0
1.32000, 15401.0
1.34000, 8533.0
1.36000, 3870.0
1.38000, 1499.0
1.40000, 815.0
1.42000, 512.0
1.44000, 442.0
1.46000, 395.0
1.48000, 373.0
1.50000, 378.0
1.52000, 402.0
1.54000, 404.0
1.56000, 374.0
1.58000, 406.0
1.60000, 388.0
1.62000, 432.0
1.64000, 425.0
1.66000, 420.0
1.68000, 442.0
1.70000, 484.0
1.72000, 591.0
1.74000, 615.0
1.76000, 599.0
1.78000, 574.0
1.80000, 536.0
1.82000, 525.0
1.84000, 464.0
1.86000, 522.0
1.88000, 479.0
1.90000, 526.0
1.92000, 493.0
1.94000, 512.0
1.96000, 499.0
1.98000, 515.0
2.00000, 519.0
2.02000, 549.0
2.04000, 530.0
2.06000, 515.0
2.08000, 538.0
2.10000, 577.0
2.12000, 589.0
2.14000, 602.0
2.16000, 622.0
2.18000, 619.0
2.20000, 679.0
2.22000, 676.0
2.24000, 691.0
2.26000, 661.0
2.28000, 629.0
2.30000, 604.0
2.32000, 672.0
2.34000, 680.0
2.36000, 707.0
2.38000, 727.0
2.40000, 707.0
2.42000, 720.0
2.44000, 734.0
2.46000, 725.0
2.48000, 699.0
2.50000, 728.0
2.52000, 711.0
2.54000, 738.0
2.56000, 707.0
2.58000, 713.0
2.60000, 740.0
2.62000, 758.0
2.64000, 727.0
2.66000, 756.0
2.68000, 735.0
2.70000, 727.0
2.72000, 749.0
2.74000, 714.0
2.76000, 781.0
2.78000, 753.0
2.80000, 766.0
2.82000, 801.0
2.84000, 808.0
2.86000, 819.0
2.88000, 771.0
2.90000, 808.0
2.92000, 806.0
2.94000, 817.0
2.96000, 801.0
2.98000, 800.0
3.00000, 854.0
3.02000, 842.0
3.04000, 805.0
3.06000, 827.0
3.08000, 821.0
3.10000, 808.0
3.12000, 873.0
3.14000, 842.0
3.16000, 847.0
3.18000, 871.0
3.20000, 847.0
3.22000, 855.0
3.24000, 879.0
3.26000, 869.0
3.28000, 830.0
3.30000, 858.0
3.32000, 858.0
3.34000, 877.0
3.36000, 860.0
3.38000, 862.0
3.40000, 852.0
3.42000, 882.0
3.44000, 860.0
3.46000, 883.0
3.48000, 858.0
3.50000, 861.0
3.52000, 845.0
3.54000, 880.0
3.56000, 858.0
3.58000, 900.0
3.60000, 875.0
3.62000, 863.0
3.64000, 881.0
3.66000, 849.0
3.68000, 858.0
3.70000, 863.0
3.72000, 877.0
3.74000, 874.0
3.76000, 859.0
3.78000, 885.0
3.80000, 869.0
3.82000, 849.0
3.84000, 835.0
3.86000, 886.0
3.88000, 899.0
3.90000, 866.0
3.92000, 896.0
3.94000, 906.0
3.96000, 832.0
3.98000, 845.0
4.00000, 845.0
4.02000, 843.0
4.04000, 873.0
4.06000, 856.0
4.08000, 863.0
4.10000, 843.0
4.12000, 866.0
4.14000, 843.0
4.16000, 831.0
4.18000, 824.0
4.20000, 836.0
4.22000, 822.0
4.24000, 826.0
4.26000, 829.0
4.28000, 841.0
4.30000, 843.0
4.32000, 831.0
4.34000, 833.0
4.36000, 849.0
4.38000, 824.0
4.40000, 803.0
4.42000, 811.0
4.44000, 852.0
4.46000, 845.0
4.48000, 865.0
4.50000, 816.0
4.52000, 820.0
4.54000, 848.0
4.56000, 818.0
4.58000, 852.0
4.60000, 797.0
4.62000, 820.0
4.64000, 806.0
4.66000, 800.0
4.68000, 792.0
4.70000, 832.0
4.72000, 807.0
4.74000, 809.0
4.76000, 795.0
4.78000, 805.0
4.80000, 801.0
4.82000, 799.0
4.84000, 802.0
4.86000, 788.0
4.88000, 749.0
4.90000, 777.0
4.92000, 802.0
4.94000, 785.0
4.96000, 745.0
4.98000, 807.0
5.00000, 760.0
5.02000, 764.0
5.04000, 758.0
5.06000, 756.0
5.08000, 756.0
5.10000, 793.0
5.12000, 753.0
5.14000, 743.0
5.16000, 705.0
5.18000, 741.0
5.20000, 728.0
5.22000, 734.0
5.24000, 758.0
5.26000, 773.0
5.28000, 674.0
5.30000, 752.0
5.32000, 726.0
5.34000, 784.0
5.36000, 749.0
5.38000, 729.0
5.40000, 744.0
5.42000, 728.0
5.44000, 729.0
5.46000, 686.0
5.48000, 729.0
5.50000, 742.0
5.52000, 704.0
5.54000, 708.0
5.56000, 684.0
5.58000, 696.0
5.60000, 730.0
5.62000, 669.0
5.64000, 685.0
5.66000, 689.0
5.68000, 677.0
5.70000, 714.0
5.72000, 705.0
5.74000, 685.0
5.76000, 681.0
5.78000, 697.0
5.80000, 694.0
5.82000, 660.0
5.84000, 689.0
5.86000, 700.0
5.88000, 671.0
5.90000, 692.0
5.92000, 710.0
5.94000, 636.0
5.96000, 654.0
5.98000, 677.0
6.00000, 647.0
6.02000, 655.0
6.04000, 656.0
6.06000, 656.0
6.08000, 675.0
6.10000, 647.0
6.12000, 618.0
6.14000, 619.0
6.16000, 645.0
6.18000, 622.0
6.20000, 615.0
6.22000, 659.0
6.24000, 643.0
6.26000, 675.0
6.28000, 626.0
6.30000, 607.0
6.32000, 620.0
6.34000, 634.0
6.36000, 634.0
6.38000, 634.0
6.40000, 596.0
6.42000, 614.0
6.44000, 632.0
6.46000, 616.0
6.48000, 601.0
6.50000, 624.0
6.52000, 610.0
6.54000, 644.0
6.56000, 613.0
6.58000, 576.0
6.60000, 575.0
6.62000, 609.0
6.64000, 595.0
6.66000, 586.0
6.68000, 593.0
6.70000, 591.0
6.72000, 534.0
6.74000, 620.0
6.76000, 625.0
6.78000, 596.0
6.80000, 603.0
6.82000, 575.0
6.84000, 579.0
6.86000, 561.0
6.88000, 567.0
6.90000, 557.0
6.92000, 546.0
6.94000, 582.0
6.96000, 608.0
6.98000, 575.0
7.00000, 566.0
7.02000, 588.0
7.04000, 581.0
7.06000, 576.0
7.08000, 585.0
7.10000, 540.0
7.12000, 557.0
7.14000, 557.0
7.16000, 547.0
7.18000, 547.0
7.20000, 557.0
7.22000, 545.0
7.24000, 535.0
7.26000, 554.0
7.28000, 550.0
7.30000, 546.0
7.32000, 534.0
7.34000, 551.0
7.36000, 543.0
7.38000, 553.0
7.40000, 550.0
7.42000, 585.0
7.44000, 561.0
7.46000, 544.0
7.48000, 597.0
7.50000, 593.0
7.52000, 535.0
7.54000, 562.0
7.56000, 538.0
7.58000, 492.0
7.60000, 552.0
7.62000, 527.0
7.64000, 520.0
7.66000, 495.0
7.68000, 513.0
7.70000, 535.0
7.72000, 495.0
7.74000, 488.0
7.76000, 493.0
7.78000, 502.0
7.80000, 492.0
7.82000, 483.0
7.84000, 488.0
7.86000, 494.0
7.88000, 525.0
7.90000, 498.0
7.92000, 536.0
7.94000, 493.0
7.96000, 504.0
7.98000, 467.0
8.00000, 511.0
8.02000, 495.0
8.04000, 505.0
8.06000, 488.0
8.08000, 505.0
8.10000, 505.0
8.12000, 489.0
8.14000, 509.0
8.16000, 457.0
8.18000, 472.0
8.20000, 454.0
8.22000, 470.0
8.24000, 450.0
8.26000, 490.0
8.28000, 480.0
8.30000, 464.0
8.32000, 467.0
8.34000, 452.0
8.36000, 457.0
8.38000, 452.0
8.40000, 453.0
8.42000, 465.0
8.44000, 464.0
8.46000, 444.0
8.48000, 466.0
8.50000, 468.0
8.52000, 452.0
8.54000, 470.0
8.56000, 478.0
8.58000, 428.0
8.60000, 464.0
8.62000, 466.0
8.64000, 460.0
8.66000, 456.0
8.68000, 460.0
8.70000, 461.0
8.72000, 450.0
8.74000, 462.0
8.76000, 486.0
8.78000, 473.0
8.80000, 463.0
8.82000, 451.0
8.84000, 470.0
8.86000, 460.0
8.88000, 421.0
8.90000, 442.0
8.92000, 441.0
8.94000, 468.0
8.96000, 480.0
8.98000, 478.0
9.00000, 499.0
9.02000, 556.0
9.04000, 725.0
9.06000, 980.0
9.08000, 1495.0
9.10000, 2426.0
9.12000, 4100.0
9.14000, 6430.0
9.16000, 9386.0
9.18000, 12757.0
9.20000, 15778.0
9.22000, 17857.0
9.24000, 18681.0
9.26000, 17610.0
9.28000, 15347.0
9.30000, 12388.0
9.32000, 8916.0
9.34000, 6019.0
9.36000, 3844.0
9.38000, 2284.0
9.40000, 1396.0
9.42000, 863.0
9.44000, 622.0
9.46000, 494.0
9.48000, 440.0
9.50000, 430.0
9.52000, 433.0
9.54000, 416.0
9.56000, 382.0
9.58000, 410.0
9.60000, 385.0
9.62000, 375.0
9.64000, 399.0
9.66000, 384.0
9.68000, 373.0
9.70000, 408.0
9.72000, 402.0
9.74000, 409.0
9.76000, 380.0
9.78000, 361.0
9.80000, 377.0
9.82000, 400.0
9.84000, 380.0
9.86000, 393.0
9.88000, 390.0
9.90000, 405.0
9.92000, 394.0
9.94000, 394.0
9.96000, 406.0
9.98000, 403.0
10.00000, 401.0
10.02000, 433.0
10.04000, 443.0
10.06000, 469.0
10.08000, 521.0
10.10000, 596.0
10.12000, 743.0
10.14000, 1001.0
10.16000, 1300.0
10.18000, 1709.0
10.20000, 2057.0
10.22000, 2514.0
10.24000, 2821.0
10.26000, 2931.0
10.28000, 2847.0
10.30000, 2642.0
10.32000, 2244.0
10.34000, 2004.0
10.36000, 1966.0
10.38000, 2183.0
10.40000, 2877.0
10.42000, 3970.0
10.44000, 5502.0
10.46000, 7035.0
10.48000, 8732.0
10.50000, 9932.0
10.52000, 10534.0
10.54000, 10280.0
10.56000, 9344.0
10.58000, 7837.0
10.60000, 6229.0
10.62000, 4539.0
10.64000, 3013.0
10.66000, 1957.0
10.68000, 1226.0
10.70000, 780.0
10.72000, 560.0
10.74000, 434.0
10.76000, 361.0
10.78000, 316.0
10.80000, 306.0
10.82000, 288.0
10.84000, 305.0
10.86000, 299.0
10.88000, 283.0
10.90000, 310.0
10.92000, 277.0
10.94000, 294.0
10.96000, 304.0
10.98000, 282.0
11.00000, 292.0
11.02000, 287.0
11.04000, 275.0
11.06000, 273.0
11.08000, 283.0
11.10000, 271.0
11.12000, 274.0
11.14000, 292.0
11.16000, 265.0
11.18000, 279.0
11.20000, 268.0
11.22000, 270.0
11.24000, 273.0
11.26000, 277.0
11.28000, 282.0
11.30000, 285.0
11.32000, 284.0
11.34000, 284.0
11.36000, 285.0
11.38000, 291.0
11.40000, 288.0
11.42000, 259.0
11.44000, 285.0
11.46000, 312.0
11.48000, 324.0
11.50000, 331.0
11.52000, 348.0
11.54000, 364.0
11.56000, 475.0
11.58000, 582.0
11.60000, 709.0
11.62000, 895.0
11.64000, 1145.0
11.66000, 1386.0
11.68000, 1574.0
11.70000, 1650.0
11.72000, 1728.0
11.74000, 1677.0
11.76000, 1423.0
11.78000, 1266.0
11.80000, 1036.0
11.82000, 831.0
11.84000, 651.0
11.86000, 499.0
11.88000, 411.0
11.90000, 340.0
11.92000, 314.0
11.94000, 272.0
11.96000, 269.0
11.98000, 229.0
12.00000, 228.0
12.02000, 233.0
12.04000, 214.0
12.06000, 216.0
12.08000, 224.0
12.10000, 220.0
12.12000, 224.0
12.14000, 204.0
12.16000, 209.0
12.18000, 229.0
12.20000, 210.0
12.22000, 197.0
12.24000, 206.0
12.26000, 199.0
12.28000, 206.0
12.30000, 218.0
12.32000, 214.0
12.34000, 209.0
12.36000, 207.0
12.38000, 207.0
12.40000, 193.0
12.42000, 205.0
12.44000, 196.0
12.46000, 203.0
12.48000, 201.0
12.50000, 208.0
12.52000, 199.0
12.54000, 183.0
12.56000, 203.0
12.58000, 209.0
12.60000, 197.0
12.62000, 201.0
12.64000, 212.0
12.66000, 207.0
12.68000, 198.0
12.70000, 195.0
12.72000, 187.0
12.74000, 216.0
12.76000, 177.0
12.78000, 182.0
12.80000, 197.0
12.82000, 209.0
12.84000, 178.0
12.86000, 200.0
12.88000, 199.0
12.90000, 192.0
12.92000, 177.0
12.94000, 195.0
12.96000, 196.0
12.98000, 193.0
13.00000, 191.0
13.02000, 181.0
13.04000, 179.0
13.06000, 188.0
13.08000, 191.0
13.10000, 175.0
13.12000, 182.0
13.14000, 179.0
13.16000, 176.0
13.18000, 179.0
13.20000, 186.0
13.22000, 187.0
13.24000, 175.0
13.26000, 173.0
13.28000, 173.0
13.30000, 159.0
13.32000, 163.0
13.34000, 168.0
13.36000, 171.0
13.38000, 169.0
13.40000, 177.0
13.42000, 181.0
13.44000, 157.0
13.46000, 160.0
13.48000, 176.0
13.50000, 162.0
13.52000, 163.0
13.54000, 162.0
13.56000, 163.0
13.58000, 168.0
13.60000, 156.0
13.62000, 168.0
13.64000, 160.0
13.66000, 156.0
13.68000, 151.0
13.70000, 173.0
13.72000, 162.0
13.74000, 170.0
13.76000, 157.0
13.78000, 161.0
13.80000, 160.0
13.82000, 157.0
13.84000, 162.0
13.86000, 161.0
13.88000, 163.0
13.90000, 165.0
13.92000, 162.0
13.94000, 148.0
13.96000, 162.0
13.98000, 162.0
14.00000, 150.0
14.02000, 165.0
14.04000, 147.0
14.06000, 140.0
14.08000, 151.0
14.10000, 141.0
14.12000, 144.0
14.14000, 142.0
14.16000, 156.0
14.18000, 161.0
14.20000, 135.0
14.22000, 152.0
14.24000, 137.0
14.26000, 148.0
14.28000, 140.0
14.30000, 150.0
14.32000, 132.0
14.34000, 159.0
14.36000, 146.0
14.38000, 139.0
14.40000, 155.0
14.42000, 136.0
14.44000, 140.0
14.46000, 134.0
14.48000, 118.0
14.50000, 136.0
14.52000, 155.0
14.54000, 150.0
14.56000, 136.0
14.58000, 133.0
14.60000, 144.0
14.62000, 122.0
14.64000, 142.0
14.66000, 152.0
14.68000, 128.0
14.70000, 128.0
14.72000, 128.0
14.74000, 145.0
14.76000, 119.0
14.78000, 146.0
14.80000, 133.0
14.82000, 137.0
14.84000, 131.0
14.86000, 132.0
14.88000, 124.0
14.90000, 143.0
14.92000, 127.0
14.94000, 121.0
14.96000, 123.0
14.98000, 137.0
15.00000, 115.0
15.02000, 119.0
15.04000, 119.0
15.06000, 129.0
15.08000, 127.0
15.10000, 113.0
15.12000, 141.0
15.14000, 123.0
15.16000, 134.0
15.18000, 112.0
15.20000, 139.0
15.22000, 126.0
15.24000, 122.0
15.26000, 120.0
15.28000, 122.0
15.30000, 112.0
15.32000, 124.0
15.34000, 112.0
15.36000, 114.0
15.38000, 118.0
15.40000, 124.0
15.42000, 107.0
15.44000, 103.0
15.46000, 112.0
15.48000, 123.0
15.50000, 117.0
15.52000, 105.0
15.54000, 112.0
15.56000, 106.0
15.58000, 116.0
15.60000, 119.0
15.62000, 100.0
15.64000, 111.0
15.66000, 103.0
15.68000, 105.0
15.70000, 110.0
15.72000, 95.0
15.74000, 108.0
15.76000, 111.0
15.78000, 111.0
15.80000, 116.0
15.82000, 106.0
15.84000, 108.0
15.86000, 113.0
15.88000, 104.0
15.90000, 102.0
15.92000, 102.0
15.94000, 106.0
15.96000, 101.0
15.98000, 104.0
16.00000, 107.0
16.02000, 100.0
16.04000, 106.0
16.06000, 97.0
16.08000, 120.0
16.10000, 101.0
16.12000, 89.0
16.14000, 101.0
16.16000, 99.0
16.18000, 118.0
16.20000, 96.0
16.22000, 109.0
16.24000, 89.0
16.26000, 94.0
16.28000, 86.0
16.30000, 102.0
16.32000, 101.0
16.34000, 92.0
16.36000, 80.0
16.38000, 83.0
16.40000, 80.0
16.42000, 91.0
16.44000, 116.0
16.46000, 95.0
16.48000, 88.0
16.50000, 106.0
16.52000, 100.0
16.54000, 86.0
16.56000, 81.0
16.58000, 83.0
16.60000, 99.0
16.62000, 94.0
16.64000, 86.0
16.66000, 90.0
16.68000, 86.0
16.70000, 98.0
16.72000, 77.0
16.74000, 82.0
16.76000, 85.0
16.78000, 89.0
16.80000, 91.0
16.82000, 77.0
16.84000, 82.0
16.86000, 83.0
16.88000, 82.0
16.90000, 85.0
16.92000, 81.0
16.94000, 68.0
16.96000, 82.0
16.98000, 82.0
17.00000, 75.0
17.02000, 72.0
17.04000, 81.0
17.06000, 83.0
17.08000, 73.0
17.10000, 76.0
17.12000, 78.0
17.14000, 79.0
17.16000, 80.0
17.18000, 83.0
17.20000, 73.0
17.22000, 75.0
17.24000, 71.0
17.26000, 76.0
17.28000, 79.0
17.30000, 74.0
17.32000, 71.0
17.34000, 75.0
17.36000, 68.0
17.38000, 63.0
17.40000, 84.0
17.42000, 71.0
17.44000, 72.0
17.46000, 76.0
17.48000, 65.0
17.50000, 73.0
17.52000, 62.0
17.54000, 64.0
17.56000, 65.0
17.58000, 59.0
17.60000, 76.0
17.62000, 75.0
17.64000, 68.0
17.66000, 66.0
17.68000, 70.0
17.70000, 56.0
17.72000, 66.0
17.74000, 80.0
17.76000, 67.0
17.78000, 79.0
17.80000, 70.0
17.82000, 73.0
17.84000, 67.0
17.86000, 72.0
17.88000, 75.0
17.90000, 65.0
17.92000, 68.0
17.94000, 76.0
17.96000, 61.0
17.98000, 76.0
18.00000, 58.0
18.02000, 71.0
18.04000, 69.0
18.06000, 77.0
18.08000, 69.0
18.10000, 60.0
18.12000, 53.0
18.14000, 62.0
18.16000, 69.0
18.18000, 57.0
18.20000, 61.0
18.22000, 64.0
18.24000, 56.0
18.26000, 65.0
18.28000, 67.0
18.30000, 64.0
18.32000, 60.0
18.34000, 67.0
18.36000, 61.0
18.38000, 70.0
18.40000, 65.0
18.42000, 74.0
18.44000, 76.0
18.46000, 73.0
18.48000, 84.0
18.50000, 75.0
18.52000, 64.0
18.54000, 70.0
18.56000, 74.0
18.58000, 63.0
18.60000, 74.0
18.62000, 53.0
18.64000, 63.0
18.66000, 57.0
18.68000, 54.0
18.70000, 54.0
18.72000, 49.0
18.74000, 57.0
18.76000, 47.0
18.78000, 56.0
18.80000, 57.0
18.82000, 60.0
18.84000, 41.0
18.86000, 50.0
18.88000, 54.0
18.90000, 55.0
18.92000, 47.0
18.94000, 48.0
18.96000, 49.0
18.98000, 50.0
19.00000, 50.0
19.02000, 47.0
19.04000, 53.0
19.06000, 54.0
19.08000, 50.0
19.10000, 41.0
19.12000, 55.0
19.14000, 51.0
19.16000, 48.0
19.18000, 53.0
19.20000, 43.0
19.22000, 51.0
19.24000, 45.0
19.26000, 53.0
19.28000, 55.0
19.30000, 50.0
19.32000, 45.0
19.34000, 44.0
19.36000, 45.0
19.38000, 50.0
19.40000, 48.0
19.42000, 42.0
19.44000, 55.0
19.46000, 56.0
19.48000, 55.0
19.50000, 54.0
19.52000, 48.0
19.54000, 47.0
19.56000, 49.0
19.58000, 41.0
19.60000, 44.0
19.62000, 51.0
19.64000, 46.0
19.66000, 47.0
19.68000, 57.0
19.70000, 61.0
19.72000, 59.0
19.74000, 68.0
19.76000, 67.0
19.78000, 60.0
19.80000, 65.0
19.82000, 68.0
19.84000, 58.0
19.86000, 53.0
19.88000, 53.0
19.90000, 48.0
19.92000, 41.0
19.94000, 45.0
19.96000, 29.0
19.98000, 35.0
20.00000, 40.0
20.02000, 43.0
20.04000, 38.0
20.06000, 46.0
20.08000, 39.0
20.10000, 35.0
20.12000, 30.0
20.14000, 35.0
20.16000, 36.0
20.18000, 42.0
20.20000, 32.0
20.22000, 36.0
20.24000, 37.0
20.26000, 33.0
20.27000, 32.0
#ENDOFDATA   :