File: data/exports/GaAs_30kV_25pA.emsa
#FORMAT      : EMSA/MAS Spectral Data File
#VERSION     : 1.0
#TITLE       : GaAs_30kV_25pA
#DATE        : 08-MAR-2023
#TIME        : 14:13
#OWNER       :
#NPOINTS     : 2048.0
#NCOLUMNS    : 1.0
#XUNITS      : keV
#YUNITS      : counts
#DATATYPE    : XY
#XPERCHAN    : 0.01
#OFFSET      : -0.2
#SIGNALTYPE  : EDS
#CHOFFSET    : 20.0
#LIVETIME    : 120.0
#REALTIME    : 159.168
#BEAMKV      : 30.0
#MAGCAM      : 9788.0
#XTILTSTGE   : 0.0
#AZIMANGLE   : 0.0
#ELEVANGLE   : 35.0
#XPOSITION mm: -8.2468
#YPOSITION mm: -4.3752
#ZPOSITION mm: 10.0002
##OXINSTPT   : 6
##OXINSTSTROB: 31.49
##OXINSTNDET : 1
##OXINSTELEMS: 25,26,27,28,29,13,6,8
##OXINSTLABEL: 25, 5.899, Mn
##OXINSTLABEL: 25, 6.490, Mn
##OXINSTLABEL: 25, 0.636, Mn
##OXINSTLABEL: 25, 0.556, Mn
##OXINSTLABEL: 26, 6.404, Fe
##OXINSTLABEL: 26, 7.058, Fe
##OXINSTLABEL: 26, 0.703, Fe
##OXINSTLABEL: 26, 0.615, Fe
##OXINSTLABEL: 27, 6.930, Co
##OXINSTLABEL: 27, 7.650, Co
##OXINSTLABEL: 27, 0.776, Co
##OXINSTLABEL: 27, 0.694, Co
##OXINSTLABEL: 27, 0.678, Co
##OXINSTLABEL: 28, 7.478, Ni
##OXINSTLABEL: 28, 8.265, Ni
##OXINSTLABEL: 28, 0.851, Ni
##OXINSTLABEL: 28, 0.762, Ni
##OXINSTLABEL: 28, 0.743, Ni
##OXINSTLABEL: 29, 8.048, Cu
##OXINSTLABEL: 29, 8.905, Cu
##OXINSTLABEL: 29, 0.930, Cu
##OXINSTLABEL: 29, 0.832, Cu
##OXINSTLABEL: 29, 0.811, Cu
##OXINSTLABEL: 13, 1.487, Al
##OXINSTLABEL: 6, 0.277, C
##OXINSTLABEL: 8, 0.525, O
#SPECTRUM    : Spectral Data Starts Here
-0.20000, 0.0
-0.18000, 0.0
-0.16000, 0.0
-0.14000, 0.0
-0.12000, 0.0
-0.10000, 0.0
-0.08000, 2.0
-0.06000, 13.0
-0.04000, 109.0
-0.02000, 1829.0
0.00000, 9320.0
0.02000, 8037.0
0.04000, 1412.0
0.06000, 110.0
0.08000, 68.0
0.10000, 81.0
0.12000, 85.0
0.14000, 80.0
0.16000, 87.0
0.18000, 85.0
0.20000, 88.0
0.22000, 118.0
0.24000, 320.0
0.26000, 659.0
0.28000, 641.0
0.30000, 250.0
0.32000, 82.0
0.34000, 91.0
0.36000, 90.0
0.38000, 94.0
0.40000, 110.0
0.42000, 132.0
0.44000, 131.0
0.46000, 169.0
0.48000, 186.0
0.50000, 197.0
0.52000, 236.0
0.54000, 225.0
0.56000, 202.0
0.58000, 223.0
0.60000, 233.0
0.62000, 254.0
0.64000, 283.0
0.66000, 317.0
0.68000, 330.0
0.70000, 352.0
0.72000, 372.0
0.74000, 435.0
0.76000, 442.0
0.78000, 470.0
0.80000, 482.0
0.82000, 500.0
0.84000, 538.0
0.86000, 593.0
0.88000, 643.0
0.90000, 750.0
0.92000, 1046.0
0.94000, 1553.0
0.96000, 2027.0
0.98000, 1964.0
1.00000, 1608.0
1.02000, 1565.0
1.04000, 2891.0
1.06000, 7752.0
1.08000, 17412.0
1.10000, 25279.0
1.12000, 22682.0
1.14000, 13105.0
1.16000, 5211.0
1.18000, 1744.0
1.20000, 856.0
1.22000, 1095.0
1.24000, 2597.0
1.26000, 5891.0
1.28000, 9119.0
1.30000, 9745.0
1.32000, 7202.0
1.34000, 4001.0
1.36000, 1729.0
1.38000, 721.0
1.40000, 368.0
1.42000, 262.0
1.44000, 200.0
1.46000, 180.0
1.48000, 185.0
1.50000, 206.0
1.52000, 175.0
1.54000, 175.0
1.56000, 187.0
1.58000, 177.0
1.60000, 190.0
1.62000, 196.0
1.64000, 194.0
1.66000, 173.0
1.68000, 199.0
1.70000, 244.0
1.72000, 296.0
1.74000, 293.0
1.76000, 279.0
1.78000, 243.0
1.80000, 223.0
1.82000, 233.0
1.84000, 238.0
1.86000, 232.0
1.88000, 225.0
1.90000, 226.0
1.92000, 224.0
1.94000, 213.0
1.96000, 230.0
1.98000, 239.0
2.00000, 231.0
2.02000, 256.0
2.04000, 253.0
2.06000, 252.0
2.08000, 279.0
2.10000, 276.0
2.12000, 283.0
2.14000, 282.0
2.16000, 270.0
2.18000, 292.0
2.20000, 288.0
2.22000, 297.0
2.24000, 298.0
2.26000, 297.0
2.28000, 305.0
2.30000, 304.0
2.32000, 286.0
2.34000, 316.0
2.36000, 320.0
2.38000, 316.0
2.40000, 307.0
2.42000, 316.0
2.44000, 357.0
2.46000, 331.0
2.48000, 338.0
2.50000, 331.0
2.52000, 332.0
2.54000, 353.0
2.56000, 324.0
2.58000, 346.0
2.60000, 338.0
2.62000, 351.0
2.64000, 340.0
2.66000, 334.0
2.68000, 342.0
2.70000, 357.0
2.72000, 371.0
2.74000, 347.0
2.76000, 359.0
2.78000, 384.0
2.80000, 368.0
2.82000, 370.0
2.84000, 374.0
2.86000, 370.0
2.88000, 363.0
2.90000, 375.0
2.92000, 387.0
2.94000, 370.0
2.96000, 395.0
2.98000, 381.0
3.00000, 379.0
3.02000, 398.0
3.04000, 391.0
3.06000, 364.0
3.08000, 405.0
3.10000, 366.0
3.12000, 405.0
3.14000, 363.0
3.16000, 384.0
3.18000, 399.0
3.20000, 426.0
3.22000, 382.0
3.24000, 407.0
3.26000, 412.0
3.28000, 400.0
3.30000, 390.0
3.32000, 400.0
3.34000, 364.0
3.36000, 407.0
3.38000, 408.0
3.40000, 423.0
3.42000, 409.0
3.44000, 394.0
3.46000, 400.0
3.48000, 413.0
3.50000, 400.0
3.52000, 417.0
3.54000, 408.0
3.56000, 402.0
3.58000, 403.0
3.60000, 399.0
3.62000, 401.0
3.64000, 415.0
3.66000, 390.0
3.68000, 410.0
3.70000, 411.0
3.72000, 392.0
3.74000, 397.0
3.76000, 429.0
3.78000, 401.0
3.80000, 387.0
3.82000, 408.0
3.84000, 420.0
3.86000, 415.0
3.88000, 390.0
3.90000, 384.0
3.92000, 381.0
3.94000, 416.0
3.96000, 376.0
3.98000, 407.0
4.00000, 396.0
4.02000, 449.0
4.04000, 365.0
4.06000, 400.0
4.08000, 396.0
4.10000, 366.0
4.12000, 398.0
4.14000, 389.0
4.16000, 408.0
4.18000, 395.0
4.20000, 392.0
4.22000, 395.0
4.24000, 380.0
4.26000, 386.0
4.28000, 375.0
4.30000, 367.0
4.32000, 401.0
4.34000, 372.0
4.36000, 397.0
4.38000, 399.0
4.40000, 372.0
4.42000, 381.0
4.44000, 396.0
4.46000, 396.0
4.48000, 373.0
4.50000, 392.0
4.52000, 394.0
4.54000, 384.0
4.56000, 359.0
4.58000, 391.0
4.60000, 387.0
4.62000, 376.0
4.64000, 382.0
4.66000, 375.0
4.68000, 384.0
4.70000, 391.0
4.72000, 370.0
4.74000, 409.0
4.76000, 377.0
4.78000, 369.0
4.80000, 365.0
4.82000, 392.0
4.84000, 375.0
4.86000, 347.0
4.88000, 377.0
4.90000, 359.0
4.92000, 343.0
4.94000, 354.0
4.96000, 364.0
4.98000, 364.0
5.00000, 359.0
5.02000, 360.0
5.04000, 369.0
5.06000, 371.0
5.08000, 377.0
5.10000, 351.0
5.12000, 349.0
5.14000, 352.0
5.16000, 370.0
5.18000, 340.0
5.20000, 365.0
5.22000, 337.0
5.24000, 377.0
5.26000, 353.0
5.28000, 343.0
5.30000, 330.0
5.32000, 350.0
5.34000, 319.0
5.36000, 357.0
5.38000, 330.0
5.40000, 365.0
5.42000, 317.0
5.44000, 329.0
5.46000, 345.0
5.48000, 331.0
5.50000, 324.0
5.52000, 360.0
5.54000, 331.0
5.56000, 319.0
5.58000, 324.0
5.60000, 323.0
5.62000, 339.0
5.64000, 327.0
5.66000, 334.0
5.68000, 311.0
5.70000, 321.0
5.72000, 343.0
5.74000, 322.0
5.76000, 358.0
5.78000, 329.0
5.80000, 299.0
5.82000, 339.0
5.84000, 328.0
5.86000, 311.0
5.88000, 319.0
5.90000, 326.0
5.92000, 296.0
5.94000, 306.0
5.96000, 328.0
5.98000, 305.0
6.00000, 288.0
6.02000, 314.0
6.04000, 285.0
6.06000, 330.0
6.08000, 303.0
6.10000, 293.0
6.12000, 298.0
6.14000, 290.0
6.16000, 323.0
6.18000, 291.0
6.20000, 301.0
6.22000, 291.0
6.24000, 298.0
6.26000, 292.0
6.28000, 323.0
6.30000, 291.0
6.32000, 288.0
6.34000, 290.0
6.36000, 276.0
6.38000, 271.0
6.40000, 292.0
6.42000, 283.0
6.44000, 286.0
6.46000, 289.0
6.48000, 286.0
6.50000, 270.0
6.52000, 293.0
6.54000, 298.0
6.56000, 275.0
6.58000, 293.0
6.60000, 275.0
6.62000, 261.0
6.64000, 280.0
6.66000, 276.0
6.68000, 287.0
6.70000, 273.0
6.72000, 258.0
6.74000, 276.0
6.76000, 271.0
6.78000, 264.0
6.80000, 270.0
6.82000, 258.0
6.84000, 257.0
6.86000, 285.0
6.88000, 261.0
6.90000, 240.0
6.92000, 262.0
6.94000, 269.0
6.96000, 266.0
6.98000, 270.0
7.00000, 254.0
7.02000, 253.0
7.04000, 274.0
7.06000, 272.0
7.08000, 249.0
7.10000, 253.0
7.12000, 243.0
7.14000, 249.0
7.16000, 257.0
7.18000, 250.0
7.20000, 262.0
7.22000, 243.0
7.24000, 247.0
7.26000, 245.0
7.28000, 232.0
7.30000, 232.0
7.32000, 259.0
7.34000, 258.0
7.36000, 224.0
7.38000, 261.0
7.40000, 270.0
7.42000, 249.0
7.44000, 270.0
7.46000, 254.0
7.48000, 277.0
7.50000, 270.0
7.52000, 243.0
7.54000, 265.0
7.56000, 267.0
7.58000, 238.0
7.60000, 254.0
7.62000, 226.0
7.64000, 244.0
7.66000, 237.0
7.68000, 243.0
7.70000, 226.0
7.72000, 238.0
7.74000, 232.0
7.76000, 232.0
7.78000, 226.0
7.80000, 241.0
7.82000, 223.0
7.84000, 228.0
7.86000, 226.0
7.88000, 236.0
7.90000, 210.0
7.92000, 229.0
7.94000, 255.0
7.96000, 252.0
7.98000, 223.0
8.00000, 249.0
8.02000, 278.0
8.04000, 232.0
8.06000, 243.0
8.08000, 239.0
8.10000, 230.0
8.12000, 225.0
8.14000, 240.0
8.16000, 215.0
8.18000, 228.0
8.20000, 197.0
8.22000, 207.0
8.24000, 215.0
8.26000, 227.0
8.28000, 225.0
8.30000, 200.0
8.32000, 212.0
8.34000, 223.0
8.36000, 211.0
8.38000, 203.0
8.40000, 207.0
8.42000, 216.0
8.44000, 203.0
8.46000, 212.0
8.48000, 225.0
8.50000, 223.0
8.52000, 215.0
8.54000, 208.0
8.56000, 216.0
8.58000, 220.0
8.60000, 203.0
8.62000, 216.0
8.64000, 205.0
8.66000, 215.0
8.68000, 204.0
8.70000, 219.0
8.72000, 218.0
8.74000, 202.0
8.76000, 207.0
8.78000, 182.0
8.80000, 212.0
8.82000, 211.0
8.84000, 193.0
8.86000, 208.0
8.88000, 223.0
8.90000, 211.0
8.92000, 198.0
8.94000, 206.0
8.96000, 215.0
8.98000, 234.0
9.00000, 259.0
9.02000, 265.0
9.04000, 325.0
9.06000, 448.0
9.08000, 718.0
9.10000, 1157.0
9.12000, 1911.0
9.14000, 3026.0
9.16000, 4384.0
9.18000, 5921.0
9.20000, 7256.0
9.22000, 8338.0
9.24000, 8656.0
9.26000, 8205.0
9.28000, 7144.0
9.30000, 5673.0
9.32000, 4168.0
9.34000, 2885.0
9.36000, 1781.0
9.38000, 1068.0
9.40000, 625.0
9.42000, 415.0
9.44000, 295.0
9.46000, 231.0
9.48000, 229.0
9.50000, 192.0
9.52000, 193.0
9.54000, 191.0
9.56000, 187.0
9.58000, 186.0
9.60000, 177.0
9.62000, 182.0
9.64000, 187.0
9.66000, 187.0
9.68000, 186.0
9.70000, 158.0
9.72000, 172.0
9.74000, 182.0
9.76000, 182.0
9.78000, 170.0
9.80000, 194.0
9.82000, 175.0
9.84000, 187.0
9.86000, 189.0
9.88000, 194.0
9.90000, 182.0
9.92000, 186.0
9.94000, 196.0
9.96000, 189.0
9.98000, 195.0
10.00000, 183.0
10.02000, 195.0
10.04000, 185.0
10.06000, 210.0
10.08000, 231.0
10.10000, 279.0
10.12000, 340.0
10.14000, 458.0
10.16000, 643.0
10.18000, 845.0
10.20000, 994.0
10.22000, 1153.0
10.24000, 1339.0
10.26000, 1345.0
10.28000, 1299.0
10.30000, 1197.0
10.32000, 1022.0
10.34000, 903.0
10.36000, 913.0
10.38000, 1010.0
10.40000, 1302.0
10.42000, 1822.0
10.44000, 2528.0
10.46000, 3336.0
10.48000, 4089.0
10.50000, 4583.0
10.52000, 4956.0
10.54000, 4829.0
10.56000, 4330.0
10.58000, 3643.0
10.60000, 2900.0
10.62000, 2103.0
10.64000, 1387.0
10.66000, 936.0
10.68000, 566.0
10.70000, 384.0
10.72000, 261.0
10.74000, 183.0
10.76000, 178.0
10.78000, 148.0
10.80000, 138.0
10.82000, 124.0
10.84000, 145.0
10.86000, 125.0
10.88000, 133.0
10.90000, 121.0
10.92000, 146.0
10.94000, 115.0
10.96000, 116.0
10.98000, 125.0
11.00000, 129.0
11.02000, 128.0
11.04000, 115.0
11.06000, 116.0
11.08000, 132.0
11.10000, 117.0
11.12000, 131.0
11.14000, 121.0
11.16000, 111.0
11.18000, 135.0
11.20000, 133.0
11.22000, 130.0
11.24000, 129.0
11.26000, 138.0
11.28000, 123.0
11.30000, 127.0
11.32000, 128.0
11.34000, 146.0
11.36000, 133.0
11.38000, 137.0
11.40000, 127.0
11.42000, 139.0
11.44000, 140.0
11.46000, 146.0
11.48000, 142.0
11.50000, 144.0
11.52000, 155.0
11.54000, 174.0
11.56000, 218.0
11.58000, 249.0
11.60000, 305.0
11.62000, 417.0
11.64000, 554.0
11.66000, 615.0
11.68000, 717.0
11.70000, 763.0
11.72000, 752.0
11.74000, 776.0
11.76000, 639.0
11.78000, 582.0
11.80000, 468.0
11.82000, 372.0
11.84000, 277.0
11.86000, 241.0
11.88000, 176.0
11.90000, 160.0
11.92000, 135.0
11.94000, 130.0
11.96000, 119.0
11.98000, 105.0
12.00000, 101.0
12.02000, 111.0
12.04000, 107.0
12.06000, 104.0
12.08000, 100.0
12.10000, 93.0
12.12000, 99.0
12.14000, 98.0
12.16000, 103.0
12.18000, 107.0
12.20000, 91.0
12.22000, 81.0
12.24000, 96.0
12.26000, 90.0
12.28000, 83.0
12.30000, 91.0
12.32000, 89.0
12.34000, 91.0
12.36000, 88.0
12.38000, 95.0
12.40000, 92.0
12.42000, 99.0
12.44000, 101.0
12.46000, 84.0
12.48000, 92.0
12.50000, 99.0
12.52000, 91.0
12.54000, 96.0
12.56000, 84.0
12.58000, 92.0
12.60000, 82.0
12.62000, 85.0
12.64000, 92.0
12.66000, 104.0
12.68000, 93.0
12.70000, 85.0
12.72000, 89.0
12.74000, 86.0
12.76000, 94.0
12.78000, 91.0
12.80000, 79.0
12.82000, 88.0
12.84000, 88.0
12.86000, 94.0
12.88000, 79.0
12.90000, 74.0
12.92000, 79.0
12.94000, 79.0
12.96000, 84.0
12.98000, 84.0
13.00000, 85.0
13.02000, 84.0
13.04000, 80.0
13.06000, 88.0
13.08000, 90.0
13.10000, 82.0
13.12000, 75.0
13.14000, 69.0
13.16000, 80.0
13.18000, 83.0
13.20000, 68.0
13.22000, 75.0
13.24000, 72.0
13.26000, 66.0
13.28000, 76.0
13.30000, 87.0
13.32000, 87.0
13.34000, 73.0
13.36000, 73.0
13.38000, 77.0
13.40000, 76.0
13.42000, 87.0
13.44000, 85.0
13.46000, 71.0
13.48000, 90.0
13.50000, 79.0
13.52000, 74.0
13.54000, 74.0
13.56000, 83.0
13.58000, 75.0
13.60000, 66.0
13.62000, 87.0
13.64000, 70.0
13.66000, 71.0
13.68000, 79.0
13.70000, 78.0
13.72000, 65.0
13.74000, 77.0
13.76000, 68.0
13.78000, 72.0
13.80000, 70.0
13.82000, 64.0
13.84000, 70.0
13.86000, 64.0
13.88000, 73.0
13.90000, 76.0
13.92000, 74.0
13.94000, 64.0
13.96000, 78.0
13.98000, 68.0
14.00000, 64.0
14.02000, 68.0
14.04000, 64.0
14.06000, 75.0
14.08000, 70.0
14.10000, 72.0
14.12000, 67.0
14.14000, 59.0
14.16000, 69.0
14.18000, 66.0
14.20000, 64.0
14.22000, 66.0
14.24000, 69.0
14.26000, 62.0
14.28000, 63.0
14.30000, 70.0
14.32000, 61.0
14.34000, 71.0
14.36000, 66.0
14.38000, 66.0
14.40000, 61.0
14.42000, 65.0
14.44000, 69.0
14.46000, 77.0
14.48000, 69.0
14.50000, 64.0
14.52000, 62.0
14.54000, 54.0
14.56000, 61.0
14.58000, 73.0
14.60000, 74.0
14.62000, 64.0
14.64000, 61.0
14.66000, 62.0
14.68000, 56.0
14.70000, 61.0
14.72000, 66.0
14.74000, 58.0
14.76000, 76.0
14.78000, 67.0
14.80000, 56.0
14.82000, 61.0
14.84000, 61.0
14.86000, 56.0
14.88000, 61.0
14.90000, 61.0
14.92000, 56.0
14.94000, 60.0
14.96000, 64.0
14.98000, 57.0
15.00000, 54.0
15.02000, 55.0
15.04000, 64.0
15.06000, 56.0
15.08000, 60.0
15.10000, 49.0
15.12000, 59.0
15.14000, 48.0
15.16000, 47.0
15.18000, 50.0
15.20000, 52.0
15.22000, 59.0
15.24000, 44.0
15.26000, 54.0
15.28000, 58.0
15.30000, 56.0
15.32000, 49.0
15.34000, 49.0
15.36000, 52.0
15.38000, 62.0
15.40000, 51.0
15.42000, 57.0
15.44000, 53.0
15.46000, 51.0
15.48000, 47.0
15.50000, 56.0
15.52000, 47.0
15.54000, 48.0
15.56000, 54.0
15.58000, 55.0
15.60000, 51.0
15.62000, 42.0
15.64000, 51.0
15.66000, 55.0
15.68000, 54.0
15.70000, 52.0
15.72000, 44.0
15.74000, 56.0
15.76000, 53.0
15.78000, 50.0
15.80000, 47.0
15.82000, 51.0
15.84000, 51.0
15.86000, 52.0
15.88000, 42.0
15.90000, 44.0
15.92000, 43.0
15.94000, 52.0
15.96000, 38.0
15.98000, 47.0
16.00000, 52.0
16.02000, 43.0
16.04000, 50.0
16.06000, 46.0
16.08000, 42.0
16.10000, 44.0
16.12000, 36.0
16.14000, 47.0
16.16000, 43.0
16.18000, 46.0
16.20000, 36.0
16.22000, 44.0
16.24000, 38.0
16.26000, 39.0
16.28000, 43.0
16.30000, 43.0
16.32000, 37.0
16.34000, 41.0
16.36000, 35.0
16.38000, 43.0
16.40000, 45.0
16.42000, 42.0
16.44000, 42.0
16.46000, 45.0
16.48000, 37.0
16.50000, 43.0
16.52000, 45.0
16.54000, 41.0
16.56000, 41.0
16.58000, 45.0
16.60000, 46.0
16.62000, 41.0
16.64000, 48.0
16.66000, 38.0
16.68000, 36.0
16.70000, 37.0
16.72000, 31.0
16.74000, 44.0
16.76000, 43.0
16.78000, 38.0
16.80000, 45.0
16.82000, 32.0
16.84000, 40.0
16.86000, 43.0
16.88000, 38.0
16.90000, 37.0
16.92000, 36.0
16.94000, 42.0
16.96000, 41.0
16.98000, 38.0
17.00000, 34.0
17.02000, 38.0
17.04000, 36.0
17.06000, 36.0
17.08000, 36.0
17.10000, 39.0
17.12000, 35.0
17.14000, 48.0
17.16000, 42.0
17.18000, 37.0
17.20000, 30.0
17.22000, 42.0
17.24000, 40.0
17.26000, 26.0
17.28000, 37.0
17.30000, 31.0
17.32000, 32.0
17.34000, 37.0
17.36000, 29.0
17.38000, 32.0
17.40000, 33.0
17.42000, 42.0
17.44000, 29.0
17.46000, 29.0
17.48000, 30.0
17.50000, 34.0
17.52000, 25.0
17.54000, 37.0
17.56000, 26.0
17.58000, 36.0
17.60000, 31.0
17.62000, 30.0
17.64000, 33.0
17.66000, 33.0
17.68000, 34.0
17.70000, 26.0
17.72000, 28.0
17.74000, 33.0
17.76000, 34.0
17.78000, 39.0
17.80000, 30.0
17.82000, 31.0
17.84000, 40.0
17.86000, 33.0
17.88000, 32.0
17.90000, 23.0
17.92000, 29.0
17.94000, 30.0
17.96000, 24.0
17.98000, 31.0
18.00000, 31.0
18.02000, 29.0
18.04000, 39.0
18.06000, 27.0
18.08000, 29.0
18.10000, 25.0
18.12000, 30.0
18.14000, 26.0
18.16000, 30.0
18.18000, 27.0
18.20000, 19.0
18.22000, 28.0
18.24000, 35.0
18.26000, 27.0
18.28000, 20.0
18.30000, 28.0
18.32000, 26.0
18.34000, 31.0
18.36000, 30.0
18.38000, 29.0
18.40000, 30.0
18.42000, 24.0
18.44000, 31.0
18.46000, 36.0
18.48000, 30.0
18.50000, 27.0
18.52000, 28.0
18.54000, 23.0
18.56000, 27.0
18.58000, 27.0
18.60000, 28.0
18.62000, 27.0
18.64000, 29.0
18.66000, 25.0
18.68000, 21.0
18.70000, 22.0
18.72000, 26.0
18.74000, 20.0
18.76000, 15.0
18.78000, 27.0
18.80000, 26.0
18.82000, 29.0
18.84000, 24.0
18.86000, 21.0
18.88000, 16.0
18.90000, 25.0
18.92000, 21.0
18.94000, 24.0
18.96000, 24.0
18.98000, 23.0
19.00000, 22.0
19.02000, 25.0
19.04000, 22.0
19.06000, 18.0
19.08000, 20.0
19.10000, 22.0
19.12000, 16.0
19.14000, 20.0
19.16000, 19.0
19.18000, 24.0
19.20000, 20.0
19.22000, 22.0
19.24000, 25.0
19.26000, 21.0
19.28000, 25.0
19.30000, 17.0
19.32000, 22.0
19.34000, 20.0
19.36000, 14.0
19.38000, 22.0
19.40000, 19.0
19.42000, 23.0
19.44000, 13.0
19.46000, 22.0
19.48000, 18.0
19.50000, 20.0
19.52000, 17.0
19.54000, 21.0
19.56000, 23.0
19.58000, 22.0
19.60000, 18.0
19.62000, 19.0
19.64000, 28.0
19.66000, 26.0
19.68000, 21.0
19.70000, 24.0
19.72000, 24.0
19.74000, 23.0
19.76000, 24.0
19.78000, 24.0
19.80000, 20.0
19.82000, 22.0
19.84000, 23.0
19.86000, 18.0
19.88000, 23.0
19.90000, 19.0
19.92000, 21.0
19.94000, 16.0
19.96000, 14.0
19.98000, 19.0
20.00000, 21.0
20.02000, 17.0
20.04000, 16.0
20.06000, 17.0
20.08000, 16.0
20.10000, 17.0
20.12000, 15.0
20.14000, 19.0
20.16000, 19.0
20.18000, 14.0
20.20000, 13.0
20.22000, 13.0
20.24000, 19.0
20.26000, 14.0
20.27000, 21.0
#ENDOFDATA   :