File: data/exports/GaSb_30kV_400pA_processTime1.emsa
#FORMAT      : EMSA/MAS Spectral Data File
#VERSION     : 1.0
#TITLE       : GaSb_30kV_400pA_processTime1
#DATE        : 08-MAR-2023
#TIME        : 15:10
#OWNER       :
#NPOINTS     : 2048.0
#NCOLUMNS    : 1.0
#XUNITS      : keV
#YUNITS      : counts
#DATATYPE    : XY
#XPERCHAN    : 0.01
#OFFSET      : -0.2
#SIGNALTYPE  : EDS
#CHOFFSET    : 20.0
#LIVETIME    : 120.0
#REALTIME    : 165.452
#BEAMKV      : 30.0
#MAGCAM      : 4894.0
#XTILTSTGE   : 0.0
#AZIMANGLE   : 0.0
#ELEVANGLE   : 35.0
#XPOSITION mm: -8.1703
#YPOSITION mm: 1.2743
#ZPOSITION mm: 10.0002
##OXINSTPT   : 1
##OXINSTSTROB: 96.85
##OXINSTNDET : 1
##OXINSTELEMS: 25,26,27,28,29,13,6,8
##OXINSTLABEL: 25, 5.899, Mn
##OXINSTLABEL: 25, 6.490, Mn
##OXINSTLABEL: 25, 0.636, Mn
##OXINSTLABEL: 25, 0.556, Mn
##OXINSTLABEL: 26, 6.404, Fe
##OXINSTLABEL: 26, 7.058, Fe
##OXINSTLABEL: 26, 0.703, Fe
##OXINSTLABEL: 26, 0.615, Fe
##OXINSTLABEL: 27, 6.930, Co
##OXINSTLABEL: 27, 7.650, Co
##OXINSTLABEL: 27, 0.776, Co
##OXINSTLABEL: 27, 0.694, Co
##OXINSTLABEL: 27, 0.678, Co
##OXINSTLABEL: 28, 7.478, Ni
##OXINSTLABEL: 28, 8.265, Ni
##OXINSTLABEL: 28, 0.851, Ni
##OXINSTLABEL: 28, 0.762, Ni
##OXINSTLABEL: 28, 0.743, Ni
##OXINSTLABEL: 29, 8.048, Cu
##OXINSTLABEL: 29, 8.905, Cu
##OXINSTLABEL: 29, 0.930, Cu
##OXINSTLABEL: 29, 0.832, Cu
##OXINSTLABEL: 29, 0.811, Cu
##OXINSTLABEL: 13, 1.487, Al
##OXINSTLABEL: 6, 0.277, C
##OXINSTLABEL: 8, 0.525, O
#SPECTRUM    : Spectral Data Starts Here
-0.20000, 0.0
-0.18000, 0.0
-0.16000, 0.0
-0.14000, 0.0
-0.12000, 0.0
-0.10000, 0.0
-0.08000, 2.0
-0.06000, 20.0
-0.04000, 60.0
-0.02000, 160.0
0.00000, 375.0
0.02000, 681.0
0.04000, 1016.0
0.06000, 1150.0
0.08000, 1097.0
0.10000, 1021.0
0.12000, 1035.0
0.14000, 1279.0
0.16000, 1781.0
0.18000, 2492.0
0.20000, 3695.0
0.22000, 5202.0
0.24000, 6861.0
0.26000, 8300.0
0.28000, 8689.0
0.30000, 7878.0
0.32000, 6740.0
0.34000, 6207.0
0.36000, 6670.0
0.38000, 8438.0
0.40000, 10281.0
0.42000, 11702.0
0.44000, 12075.0
0.46000, 11681.0
0.48000, 10821.0
0.50000, 9941.0
0.52000, 9084.0
0.54000, 7875.0
0.56000, 6575.0
0.58000, 5254.0
0.60000, 4406.0
0.62000, 3991.0
0.64000, 3928.0
0.66000, 4069.0
0.68000, 4356.0
0.70000, 4898.0
0.72000, 5189.0
0.74000, 5559.0
0.76000, 5655.0
0.78000, 5779.0
0.80000, 5623.0
0.82000, 5489.0
0.84000, 5701.0
0.86000, 5848.0
0.88000, 6191.0
0.90000, 7114.0
0.92000, 8161.0
0.94000, 9349.0
0.96000, 10730.0
0.98000, 12484.0
1.00000, 16520.0
1.02000, 24280.0
1.04000, 37403.0
1.06000, 54914.0
1.08000, 71486.0
1.10000, 81107.0
1.12000, 79375.0
1.14000, 66557.0
1.16000, 48402.0
1.18000, 31305.0
1.20000, 18983.0
1.22000, 11855.0
1.24000, 8049.0
1.26000, 6444.0
1.28000, 5901.0
1.30000, 5699.0
1.32000, 5748.0
1.34000, 5704.0
1.36000, 5691.0
1.38000, 5792.0
1.40000, 6012.0
1.42000, 6157.0
1.44000, 6335.0
1.46000, 6480.0
1.48000, 6632.0
1.50000, 6787.0
1.52000, 6947.0
1.54000, 6933.0
1.56000, 6879.0
1.58000, 6996.0
1.60000, 7145.0
1.62000, 7325.0
1.64000, 7667.0
1.66000, 8070.0
1.68000, 8860.0
1.70000, 9626.0
1.72000, 10156.0
1.74000, 10613.0
1.76000, 10968.0
1.78000, 10960.0
1.80000, 11075.0
1.82000, 11211.0
1.84000, 11201.0
1.86000, 11215.0
1.88000, 11090.0
1.90000, 10374.0
1.92000, 9934.0
1.94000, 9393.0
1.96000, 9132.0
1.98000, 9120.0
2.00000, 9166.0
2.02000, 9447.0
2.04000, 9723.0
2.06000, 9820.0
2.08000, 10420.0
2.10000, 10622.0
2.12000, 10815.0
2.14000, 10689.0
2.16000, 10662.0
2.18000, 10697.0
2.20000, 10657.0
2.22000, 10637.0
2.24000, 10576.0
2.26000, 10482.0
2.28000, 10344.0
2.30000, 10569.0
2.32000, 10791.0
2.34000, 10834.0
2.36000, 10825.0
2.38000, 10916.0
2.40000, 10926.0
2.42000, 10889.0
2.44000, 10953.0
2.46000, 10792.0
2.48000, 10806.0
2.50000, 11074.0
2.52000, 10919.0
2.54000, 11076.0
2.56000, 11183.0
2.58000, 11200.0
2.60000, 11296.0
2.62000, 11349.0
2.64000, 11562.0
2.66000, 11512.0
2.68000, 11452.0
2.70000, 11407.0
2.72000, 11392.0
2.74000, 11654.0
2.76000, 11718.0
2.78000, 11685.0
2.80000, 11823.0
2.82000, 11773.0
2.84000, 11707.0
2.86000, 11746.0
2.88000, 11787.0
2.90000, 11746.0
2.92000, 11766.0
2.94000, 11958.0
2.96000, 11863.0
2.98000, 11844.0
3.00000, 11908.0
3.02000, 12112.0
3.04000, 12240.0
3.06000, 12690.0
3.08000, 13118.0
3.10000, 14207.0
3.12000, 15615.0
3.14000, 17193.0
3.16000, 19033.0
3.18000, 20130.0
3.20000, 20179.0
3.22000, 19810.0
3.24000, 18490.0
3.26000, 16770.0
3.28000, 15371.0
3.30000, 14355.0
3.32000, 13770.0
3.34000, 13746.0
3.36000, 13927.0
3.38000, 14809.0
3.40000, 15765.0
3.42000, 17389.0
3.44000, 20330.0
3.46000, 25869.0
3.48000, 36490.0
3.50000, 56282.0
3.52000, 87357.0
3.54000, 129780.0
3.56000, 178781.0
3.58000, 221773.0
3.60000, 247323.0
3.62000, 247494.0
3.64000, 221429.0
3.66000, 177326.0
3.68000, 129287.0
3.70000, 88928.0
3.72000, 62805.0
3.74000, 52340.0
3.76000, 57137.0
3.78000, 72983.0
3.80000, 94884.0
3.82000, 117124.0
3.84000, 133228.0
3.86000, 139147.0
3.88000, 134215.0
3.90000, 119837.0
3.92000, 100603.0
3.94000, 81200.0
3.96000, 64026.0
3.98000, 50845.0
4.00000, 41877.0
4.02000, 37993.0
4.04000, 38457.0
4.06000, 41172.0
4.08000, 44358.0
4.10000, 46034.0
4.12000, 44586.0
4.14000, 40326.0
4.16000, 33662.0
4.18000, 26922.0
4.20000, 20593.0
4.22000, 16710.0
4.24000, 14614.0
4.26000, 14197.0
4.28000, 15102.0
4.30000, 16842.0
4.32000, 18548.0
4.34000, 19780.0
4.36000, 19732.0
4.38000, 18936.0
4.40000, 16852.0
4.42000, 14397.0
4.44000, 12259.0
4.46000, 10841.0
4.48000, 9988.0
4.50000, 10093.0
4.52000, 10578.0
4.54000, 11628.0
4.56000, 12624.0
4.58000, 13312.0
4.60000, 13656.0
4.62000, 13410.0
4.64000, 12952.0
4.66000, 12171.0
4.68000, 11441.0
4.70000, 10740.0
4.72000, 9980.0
4.74000, 9424.0
4.76000, 8853.0
4.78000, 8421.0
4.80000, 8126.0
4.82000, 7914.0
4.84000, 7628.0
4.86000, 7477.0
4.88000, 7720.0
4.90000, 7693.0
4.92000, 7714.0
4.94000, 7922.0
4.96000, 7858.0
4.98000, 8061.0
5.00000, 8009.0
5.02000, 7858.0
5.04000, 7707.0
5.06000, 7665.0
5.08000, 7534.0
5.10000, 7512.0
5.12000, 7450.0
5.14000, 7437.0
5.16000, 7481.0
5.18000, 7556.0
5.20000, 7510.0
5.22000, 7517.0
5.24000, 7556.0
5.26000, 7419.0
5.28000, 7462.0
5.30000, 7468.0
5.32000, 7426.0
5.34000, 7509.0
5.36000, 7374.0
5.38000, 7400.0
5.40000, 7371.0
5.42000, 7493.0
5.44000, 7367.0
5.46000, 7417.0
5.48000, 7423.0
5.50000, 7397.0
5.52000, 7480.0
5.54000, 7378.0
5.56000, 7352.0
5.58000, 7312.0
5.60000, 7372.0
5.62000, 7384.0
5.64000, 7292.0
5.66000, 7419.0
5.68000, 7444.0
5.70000, 7375.0
5.72000, 7495.0
5.74000, 7348.0
5.76000, 7362.0
5.78000, 7415.0
5.80000, 7365.0
5.82000, 7468.0
5.84000, 7394.0
5.86000, 7483.0
5.88000, 7321.0
5.90000, 7455.0
5.92000, 7349.0
5.94000, 7288.0
5.96000, 7326.0
5.98000, 7312.0
6.00000, 7290.0
6.02000, 7397.0
6.04000, 7254.0
6.06000, 7334.0
6.08000, 7324.0
6.10000, 7289.0
6.12000, 7292.0
6.14000, 7338.0
6.16000, 7340.0
6.18000, 7319.0
6.20000, 7291.0
6.22000, 7202.0
6.24000, 7267.0
6.26000, 7262.0
6.28000, 7192.0
6.30000, 7344.0
6.32000, 7305.0
6.34000, 7139.0
6.36000, 7206.0
6.38000, 7332.0
6.40000, 7275.0
6.42000, 7195.0
6.44000, 7208.0
6.46000, 7307.0
6.48000, 7259.0
6.50000, 7198.0
6.52000, 7136.0
6.54000, 7186.0
6.56000, 7124.0
6.58000, 7270.0
6.60000, 7253.0
6.62000, 7248.0
6.64000, 7227.0
6.66000, 7233.0
6.68000, 7230.0
6.70000, 7213.0
6.72000, 7263.0
6.74000, 7203.0
6.76000, 7333.0
6.78000, 7291.0
6.80000, 7345.0
6.82000, 7338.0
6.84000, 7378.0
6.86000, 7261.0
6.88000, 7331.0
6.90000, 7346.0
6.92000, 7272.0
6.94000, 7379.0
6.96000, 7321.0
6.98000, 7440.0
7.00000, 7315.0
7.02000, 7599.0
7.04000, 7676.0
7.06000, 7771.0
7.08000, 7831.0
7.10000, 8072.0
7.12000, 8428.0
7.14000, 8663.0
7.16000, 9064.0
7.18000, 9444.0
7.20000, 9546.0
7.22000, 9743.0
7.24000, 9728.0
7.26000, 9315.0
7.28000, 9025.0
7.30000, 8756.0
7.32000, 8488.0
7.34000, 8345.0
7.36000, 8549.0
7.38000, 8716.0
7.40000, 9063.0
7.42000, 9279.0
7.44000, 9634.0
7.46000, 9874.0
7.48000, 9809.0
7.50000, 9749.0
7.52000, 9389.0
7.54000, 9026.0
7.56000, 8566.0
7.58000, 8361.0
7.60000, 8120.0
7.62000, 8070.0
7.64000, 8033.0
7.66000, 7961.0
7.68000, 7958.0
7.70000, 8107.0
7.72000, 8145.0
7.74000, 7906.0
7.76000, 7790.0
7.78000, 7719.0
7.80000, 7425.0
7.82000, 7251.0
7.84000, 7151.0
7.86000, 7112.0
7.88000, 7069.0
7.90000, 7058.0
7.92000, 6951.0
7.94000, 6996.0
7.96000, 7013.0
7.98000, 7071.0
8.00000, 6907.0
8.02000, 6752.0
8.04000, 6804.0
8.06000, 6726.0
8.08000, 6557.0
8.10000, 6497.0
8.12000, 6397.0
8.14000, 6531.0
8.16000, 6490.0
8.18000, 6490.0
8.20000, 6343.0
8.22000, 6374.0
8.24000, 6404.0
8.26000, 6353.0
8.28000, 6076.0
8.30000, 6100.0
8.32000, 6106.0
8.34000, 5959.0
8.36000, 6036.0
8.38000, 6049.0
8.40000, 6057.0
8.42000, 6097.0
8.44000, 6042.0
8.46000, 6104.0
8.48000, 6038.0
8.50000, 5939.0
8.52000, 5956.0
8.54000, 5933.0
8.56000, 5957.0
8.58000, 5867.0
8.60000, 5868.0
8.62000, 5836.0
8.64000, 5729.0
8.66000, 5754.0
8.68000, 5812.0
8.70000, 5846.0
8.72000, 5802.0
8.74000, 5639.0
8.76000, 5688.0
8.78000, 5773.0
8.80000, 5765.0
8.82000, 5774.0
8.84000, 5739.0
8.86000, 5800.0
8.88000, 5768.0
8.90000, 5762.0
8.92000, 5803.0
8.94000, 5866.0
8.96000, 5978.0
8.98000, 6085.0
9.00000, 6645.0
9.02000, 7538.0
9.04000, 9156.0
9.06000, 12050.0
9.08000, 16698.0
9.10000, 24011.0
9.12000, 33940.0
9.14000, 47115.0
9.16000, 61591.0
9.18000, 76708.0
9.20000, 90032.0
9.22000, 98913.0
9.24000, 102172.0
9.26000, 99416.0
9.28000, 89911.0
9.30000, 77113.0
9.32000, 61633.0
9.34000, 47109.0
9.36000, 34101.0
9.38000, 23752.0
9.40000, 16528.0
9.42000, 11738.0
9.44000, 8984.0
9.46000, 7283.0
9.48000, 6348.0
9.50000, 5886.0
9.52000, 5645.0
9.54000, 5568.0
9.56000, 5466.0
9.58000, 5407.0
9.60000, 5389.0
9.62000, 5372.0
9.64000, 5416.0
9.66000, 5257.0
9.68000, 5328.0
9.70000, 5303.0
9.72000, 5231.0
9.74000, 5308.0
9.76000, 5173.0
9.78000, 5225.0
9.80000, 5204.0
9.82000, 5246.0
9.84000, 5193.0
9.86000, 5228.0
9.88000, 5379.0
9.90000, 5267.0
9.92000, 5150.0
9.94000, 5279.0
9.96000, 5210.0
9.98000, 5301.0
10.00000, 5328.0
10.02000, 5494.0
10.04000, 5659.0
10.06000, 5896.0
10.08000, 6447.0
10.10000, 6993.0
10.12000, 8178.0
10.14000, 9672.0
10.16000, 11316.0
10.18000, 13417.0
10.20000, 15564.0
10.22000, 17096.0
10.24000, 18095.0
10.26000, 18828.0
10.28000, 18379.0
10.30000, 17176.0
10.32000, 15649.0
10.34000, 13581.0
10.36000, 11594.0
10.38000, 9864.0
10.40000, 8061.0
10.42000, 7043.0
10.44000, 6071.0
10.46000, 5405.0
10.48000, 5045.0
10.50000, 4725.0
10.52000, 4739.0
10.54000, 4579.0
10.56000, 4544.0
10.58000, 4407.0
10.60000, 4396.0
10.62000, 4389.0
10.64000, 4362.0
10.66000, 4419.0
10.68000, 4419.0
10.70000, 4411.0
10.72000, 4329.0
10.74000, 4371.0
10.76000, 4304.0
10.78000, 4349.0
10.80000, 4345.0
10.82000, 4272.0
10.84000, 4388.0
10.86000, 4344.0
10.88000, 4299.0
10.90000, 4363.0
10.92000, 4413.0
10.94000, 4255.0
10.96000, 4227.0
10.98000, 4243.0
11.00000, 4324.0
11.02000, 4362.0
11.04000, 4266.0
11.06000, 4269.0
11.08000, 4225.0
11.10000, 4242.0
11.12000, 4253.0
11.14000, 4131.0
11.16000, 4244.0
11.18000, 4289.0
11.20000, 4201.0
11.22000, 4150.0
11.24000, 4240.0
11.26000, 4211.0
11.28000, 4216.0
11.30000, 4249.0
11.32000, 4226.0
11.34000, 4245.0
11.36000, 4232.0
11.38000, 4228.0
11.40000, 4151.0
11.42000, 4304.0
11.44000, 4191.0
11.46000, 4132.0
11.48000, 4141.0
11.50000, 4211.0
11.52000, 4057.0
11.54000, 4119.0
11.56000, 4096.0
11.58000, 4027.0
11.60000, 4069.0
11.62000, 4040.0
11.64000, 3996.0
11.66000, 3980.0
11.68000, 3983.0
11.70000, 4001.0
11.72000, 4007.0
11.74000, 3879.0
11.76000, 3947.0
11.78000, 3949.0
11.80000, 4037.0
11.82000, 3939.0
11.84000, 4012.0
11.86000, 3912.0
11.88000, 4027.0
11.90000, 3941.0
11.92000, 3948.0
11.94000, 3895.0
11.96000, 3881.0
11.98000, 3884.0
12.00000, 3838.0
12.02000, 3928.0
12.04000, 3889.0
12.06000, 3846.0
12.08000, 3866.0
12.10000, 3867.0
12.12000, 3798.0
12.14000, 3844.0
12.16000, 3897.0
12.18000, 3852.0
12.20000, 3849.0
12.22000, 3903.0
12.24000, 3782.0
12.26000, 3790.0
12.28000, 3768.0
12.30000, 3846.0
12.32000, 3833.0
12.34000, 3860.0
12.36000, 3838.0
12.38000, 3845.0
12.40000, 3919.0
12.42000, 3826.0
12.44000, 3874.0
12.46000, 3806.0
12.48000, 3843.0
12.50000, 3884.0
12.52000, 3913.0
12.54000, 3844.0
12.56000, 3799.0
12.58000, 3847.0
12.60000, 3871.0
12.62000, 3886.0
12.64000, 3962.0
12.66000, 4075.0
12.68000, 4145.0
12.70000, 4255.0
12.72000, 4421.0
12.74000, 4604.0
12.76000, 4925.0
12.78000, 5056.0
12.80000, 5245.0
12.82000, 5562.0
12.84000, 5547.0
12.86000, 5562.0
12.88000, 5494.0
12.90000, 5349.0
12.92000, 5148.0
12.94000, 4977.0
12.96000, 4684.0
12.98000, 4566.0
13.00000, 4456.0
13.02000, 4490.0
13.04000, 4385.0
13.06000, 4415.0
13.08000, 4408.0
13.10000, 4516.0
13.12000, 4464.0
13.14000, 4461.0
13.16000, 4250.0
13.18000, 4263.0
13.20000, 4053.0
13.22000, 3991.0
13.24000, 3779.0
13.26000, 3741.0
13.28000, 3610.0
13.30000, 3591.0
13.32000, 3602.0
13.34000, 3538.0
13.36000, 3494.0
13.38000, 3362.0
13.40000, 3349.0
13.42000, 3322.0
13.44000, 3257.0
13.46000, 3230.0
13.48000, 3250.0
13.50000, 3113.0
13.52000, 3149.0
13.54000, 3098.0
13.56000, 3084.0
13.58000, 3095.0
13.60000, 3093.0
13.62000, 3024.0
13.64000, 3048.0
13.66000, 2993.0
13.68000, 3102.0
13.70000, 3138.0
13.72000, 3108.0
13.74000, 3076.0
13.76000, 3019.0
13.78000, 3133.0
13.80000, 3072.0
13.82000, 3175.0
13.84000, 3143.0
13.86000, 3118.0
13.88000, 3138.0
13.90000, 3135.0
13.92000, 3085.0
13.94000, 3025.0
13.96000, 2984.0
13.98000, 2943.0
14.00000, 2919.0
14.02000, 2916.0
14.04000, 2907.0
14.06000, 2831.0
14.08000, 2936.0
14.10000, 2856.0
14.12000, 2795.0
14.14000, 2908.0
14.16000, 2771.0
14.18000, 2768.0
14.20000, 2734.0
14.22000, 2698.0
14.24000, 2709.0
14.26000, 2701.0
14.28000, 2626.0
14.30000, 2676.0
14.32000, 2582.0
14.34000, 2587.0
14.36000, 2564.0
14.38000, 2555.0
14.40000, 2598.0
14.42000, 2520.0
14.44000, 2564.0
14.46000, 2539.0
14.48000, 2515.0
14.50000, 2579.0
14.52000, 2537.0
14.54000, 2458.0
14.56000, 2501.0
14.58000, 2488.0
14.60000, 2461.0
14.62000, 2425.0
14.64000, 2482.0
14.66000, 2432.0
14.68000, 2396.0
14.70000, 2374.0
14.72000, 2338.0
14.74000, 2431.0
14.76000, 2346.0
14.78000, 2259.0
14.80000, 2365.0
14.82000, 2387.0
14.84000, 2368.0
14.86000, 2318.0
14.88000, 2259.0
14.90000, 2329.0
14.92000, 2300.0
14.94000, 2331.0
14.96000, 2304.0
14.98000, 2297.0
15.00000, 2183.0
15.02000, 2215.0
15.04000, 2358.0
15.06000, 2273.0
15.08000, 2265.0
15.10000, 2169.0
15.12000, 2194.0
15.14000, 2156.0
15.16000, 2212.0
15.18000, 2209.0
15.20000, 2108.0
15.22000, 2188.0
15.24000, 2178.0
15.26000, 2151.0
15.28000, 2115.0
15.30000, 2183.0
15.32000, 2099.0
15.34000, 2119.0
15.36000, 2148.0
15.38000, 2089.0
15.40000, 2069.0
15.42000, 2124.0
15.44000, 2083.0
15.46000, 2079.0
15.48000, 2065.0
15.50000, 2114.0
15.52000, 2063.0
15.54000, 2055.0
15.56000, 2002.0
15.58000, 2062.0
15.60000, 2012.0
15.62000, 2013.0
15.64000, 1976.0
15.66000, 2059.0
15.68000, 1999.0
15.70000, 1985.0
15.72000, 2022.0
15.74000, 1944.0
15.76000, 1938.0
15.78000, 1877.0
15.80000, 1973.0
15.82000, 1933.0
15.84000, 1892.0
15.86000, 1916.0
15.88000, 1963.0
15.90000, 1883.0
15.92000, 1963.0
15.94000, 1961.0
15.96000, 1908.0
15.98000, 1861.0
16.00000, 1892.0
16.02000, 1820.0
16.04000, 1859.0
16.06000, 1843.0
16.08000, 1924.0
16.10000, 1859.0
16.12000, 1843.0
16.14000, 1801.0
16.16000, 1845.0
16.18000, 1827.0
16.20000, 1825.0
16.22000, 1866.0
16.24000, 1839.0
16.26000, 1847.0
16.28000, 1805.0
16.30000, 1823.0
16.32000, 1792.0
16.34000, 1747.0
16.36000, 1769.0
16.38000, 1775.0
16.40000, 1691.0
16.42000, 1801.0
16.44000, 1784.0
16.46000, 1767.0
16.48000, 1784.0
16.50000, 1693.0
16.52000, 1705.0
16.54000, 1722.0
16.56000, 1755.0
16.58000, 1737.0
16.60000, 1711.0
16.62000, 1680.0
16.64000, 1694.0
16.66000, 1680.0
16.68000, 1700.0
16.70000, 1690.0
16.72000, 1666.0
16.74000, 1693.0
16.76000, 1615.0
16.78000, 1669.0
16.80000, 1655.0
16.82000, 1650.0
16.84000, 1619.0
16.86000, 1612.0
16.88000, 1638.0
16.90000, 1566.0
16.92000, 1636.0
16.94000, 1601.0
16.96000, 1602.0
16.98000, 1548.0
17.00000, 1537.0
17.02000, 1580.0
17.04000, 1607.0
17.06000, 1538.0
17.08000, 1556.0
17.10000, 1514.0
17.12000, 1549.0
17.14000, 1513.0
17.16000, 1516.0
17.18000, 1535.0
17.20000, 1508.0
17.22000, 1509.0
17.24000, 1499.0
17.26000, 1490.0
17.28000, 1484.0
17.30000, 1458.0
17.32000, 1493.0
17.34000, 1466.0
17.36000, 1442.0
17.38000, 1493.0
17.40000, 1405.0
17.42000, 1476.0
17.44000, 1432.0
17.46000, 1396.0
17.48000, 1352.0
17.50000, 1395.0
17.52000, 1374.0
17.54000, 1417.0
17.56000, 1416.0
17.58000, 1405.0
17.60000, 1387.0
17.62000, 1368.0
17.64000, 1335.0
17.66000, 1367.0
17.68000, 1391.0
17.70000, 1350.0
17.72000, 1374.0
17.74000, 1338.0
17.76000, 1400.0
17.78000, 1352.0
17.80000, 1320.0
17.82000, 1329.0
17.84000, 1314.0
17.86000, 1365.0
17.88000, 1341.0
17.90000, 1284.0
17.92000, 1276.0
17.94000, 1252.0
17.96000, 1265.0
17.98000, 1294.0
18.00000, 1292.0
18.02000, 1285.0
18.04000, 1250.0
18.06000, 1349.0
18.08000, 1288.0
18.10000, 1247.0
18.12000, 1261.0
18.14000, 1244.0
18.16000, 1236.0
18.18000, 1205.0
18.20000, 1285.0
18.22000, 1267.0
18.24000, 1229.0
18.26000, 1267.0
18.28000, 1278.0
18.30000, 1325.0
18.32000, 1342.0
18.34000, 1355.0
18.36000, 1367.0
18.38000, 1448.0
18.40000, 1491.0
18.42000, 1520.0
18.44000, 1497.0
18.46000, 1571.0
18.48000, 1551.0
18.50000, 1606.0
18.52000, 1535.0
18.54000, 1513.0
18.56000, 1495.0
18.58000, 1386.0
18.60000, 1375.0
18.62000, 1288.0
18.64000, 1191.0
18.66000, 1151.0
18.68000, 1130.0
18.70000, 1146.0
18.72000, 1142.0
18.74000, 1077.0
18.76000, 1102.0
18.78000, 1059.0
18.80000, 1080.0
18.82000, 1040.0
18.84000, 1075.0
18.86000, 1049.0
18.88000, 1018.0
18.90000, 1043.0
18.92000, 1028.0
18.94000, 999.0
18.96000, 1033.0
18.98000, 1024.0
19.00000, 1022.0
19.02000, 1024.0
19.04000, 982.0
19.06000, 981.0
19.08000, 994.0
19.10000, 972.0
19.12000, 978.0
19.14000, 986.0
19.16000, 992.0
19.18000, 1027.0
19.20000, 974.0
19.22000, 955.0
19.24000, 936.0
19.26000, 983.0
19.28000, 989.0
19.30000, 989.0
19.32000, 1007.0
19.34000, 1034.0
19.36000, 1002.0
19.38000, 995.0
19.40000, 1039.0
19.42000, 1035.0
19.44000, 1015.0
19.46000, 1051.0
19.48000, 1045.0
19.50000, 1056.0
19.52000, 1022.0
19.54000, 1039.0
19.56000, 1024.0
19.58000, 973.0
19.60000, 976.0
19.62000, 932.0
19.64000, 953.0
19.66000, 966.0
19.68000, 886.0
19.70000, 880.0
19.72000, 855.0
19.74000, 887.0
19.76000, 851.0
19.78000, 873.0
19.80000, 817.0
19.82000, 837.0
19.84000, 858.0
19.86000, 819.0
19.88000, 842.0
19.90000, 831.0
19.92000, 842.0
19.94000, 843.0
19.96000, 823.0
19.98000, 800.0
20.00000, 833.0
20.02000, 818.0
20.04000, 793.0
20.06000, 808.0
20.08000, 818.0
20.10000, 817.0
20.12000, 765.0
20.14000, 770.0
20.16000, 753.0
20.18000, 783.0
20.20000, 780.0
20.22000, 753.0
20.24000, 765.0
20.26000, 754.0
20.27000, 767.0
#ENDOFDATA   :