File: data/exports/GaSb_30kV_50pA_processTime4.emsa
#FORMAT      : EMSA/MAS Spectral Data File
#VERSION     : 1.0
#TITLE       : GaSb_30kV_50pA_processTime4
#DATE        : 08-MAR-2023
#TIME        : 15:00
#OWNER       :
#NPOINTS     : 2048.0
#NCOLUMNS    : 1.0
#XUNITS      : keV
#YUNITS      : counts
#DATATYPE    : XY
#XPERCHAN    : 0.01
#OFFSET      : -0.2
#SIGNALTYPE  : EDS
#CHOFFSET    : 20.0
#LIVETIME    : 120.0
#REALTIME    : 137.771
#BEAMKV      : 30.0
#MAGCAM      : 4894.0
#XTILTSTGE   : 0.0
#AZIMANGLE   : 0.0
#ELEVANGLE   : 35.0
#XPOSITION mm: -8.1703
#YPOSITION mm: 1.2743
#ZPOSITION mm: 10.0002
##OXINSTPT   : 4
##OXINSTSTROB: 47.09
##OXINSTNDET : 1
##OXINSTELEMS: 25,26,27,28,29,13,6,8
##OXINSTLABEL: 25, 5.899, Mn
##OXINSTLABEL: 25, 6.490, Mn
##OXINSTLABEL: 25, 0.636, Mn
##OXINSTLABEL: 25, 0.556, Mn
##OXINSTLABEL: 26, 6.404, Fe
##OXINSTLABEL: 26, 7.058, Fe
##OXINSTLABEL: 26, 0.703, Fe
##OXINSTLABEL: 26, 0.615, Fe
##OXINSTLABEL: 27, 6.930, Co
##OXINSTLABEL: 27, 7.650, Co
##OXINSTLABEL: 27, 0.776, Co
##OXINSTLABEL: 27, 0.694, Co
##OXINSTLABEL: 27, 0.678, Co
##OXINSTLABEL: 28, 7.478, Ni
##OXINSTLABEL: 28, 8.265, Ni
##OXINSTLABEL: 28, 0.851, Ni
##OXINSTLABEL: 28, 0.762, Ni
##OXINSTLABEL: 28, 0.743, Ni
##OXINSTLABEL: 29, 8.048, Cu
##OXINSTLABEL: 29, 8.905, Cu
##OXINSTLABEL: 29, 0.930, Cu
##OXINSTLABEL: 29, 0.832, Cu
##OXINSTLABEL: 29, 0.811, Cu
##OXINSTLABEL: 13, 1.487, Al
##OXINSTLABEL: 6, 0.277, C
##OXINSTLABEL: 8, 0.525, O
#SPECTRUM    : Spectral Data Starts Here
-0.20000, 0.0
-0.18000, 0.0
-0.16000, 0.0
-0.14000, 0.0
-0.12000, 0.0
-0.10000, 0.0
-0.08000, 1.0
-0.06000, 5.0
-0.04000, 118.0
-0.02000, 753.0
0.00000, 2303.0
0.02000, 4388.0
0.04000, 6512.0
0.06000, 4480.0
0.08000, 1218.0
0.10000, 244.0
0.12000, 198.0
0.14000, 223.0
0.16000, 258.0
0.18000, 281.0
0.20000, 312.0
0.22000, 478.0
0.24000, 866.0
0.26000, 1268.0
0.28000, 1226.0
0.30000, 762.0
0.32000, 380.0
0.34000, 313.0
0.36000, 405.0
0.38000, 703.0
0.40000, 1118.0
0.42000, 1543.0
0.44000, 1431.0
0.46000, 1089.0
0.48000, 869.0
0.50000, 883.0
0.52000, 966.0
0.54000, 770.0
0.56000, 552.0
0.58000, 384.0
0.60000, 373.0
0.62000, 349.0
0.64000, 327.0
0.66000, 373.0
0.68000, 376.0
0.70000, 485.0
0.72000, 529.0
0.74000, 617.0
0.76000, 587.0
0.78000, 538.0
0.80000, 542.0
0.82000, 521.0
0.84000, 515.0
0.86000, 515.0
0.88000, 537.0
0.90000, 606.0
0.92000, 748.0
0.94000, 946.0
0.96000, 1116.0
0.98000, 1063.0
1.00000, 1046.0
1.02000, 1240.0
1.04000, 2057.0
1.06000, 4515.0
1.08000, 8380.0
1.10000, 11280.0
1.12000, 10743.0
1.14000, 7346.0
1.16000, 3752.0
1.18000, 1678.0
1.20000, 928.0
1.22000, 672.0
1.24000, 583.0
1.26000, 537.0
1.28000, 531.0
1.30000, 497.0
1.32000, 534.0
1.34000, 547.0
1.36000, 538.0
1.38000, 556.0
1.40000, 574.0
1.42000, 585.0
1.44000, 621.0
1.46000, 633.0
1.48000, 647.0
1.50000, 650.0
1.52000, 664.0
1.54000, 650.0
1.56000, 680.0
1.58000, 658.0
1.60000, 649.0
1.62000, 735.0
1.64000, 720.0
1.66000, 756.0
1.68000, 804.0
1.70000, 952.0
1.72000, 1029.0
1.74000, 1133.0
1.76000, 1148.0
1.78000, 1066.0
1.80000, 1034.0
1.82000, 1040.0
1.84000, 1237.0
1.86000, 1146.0
1.88000, 1160.0
1.90000, 1042.0
1.92000, 936.0
1.94000, 895.0
1.96000, 841.0
1.98000, 868.0
2.00000, 842.0
2.02000, 910.0
2.04000, 901.0
2.06000, 998.0
2.08000, 1028.0
2.10000, 1108.0
2.12000, 1084.0
2.14000, 1088.0
2.16000, 1052.0
2.18000, 1043.0
2.20000, 1075.0
2.22000, 1013.0
2.24000, 1034.0
2.26000, 988.0
2.28000, 980.0
2.30000, 1056.0
2.32000, 1051.0
2.34000, 1071.0
2.36000, 1123.0
2.38000, 1109.0
2.40000, 1069.0
2.42000, 1127.0
2.44000, 1080.0
2.46000, 1081.0
2.48000, 1113.0
2.50000, 1119.0
2.52000, 1096.0
2.54000, 1063.0
2.56000, 1111.0
2.58000, 1136.0
2.60000, 1138.0
2.62000, 1123.0
2.64000, 1087.0
2.66000, 1090.0
2.68000, 1173.0
2.70000, 1135.0
2.72000, 1172.0
2.74000, 1146.0
2.76000, 1186.0
2.78000, 1187.0
2.80000, 1188.0
2.82000, 1218.0
2.84000, 1138.0
2.86000, 1159.0
2.88000, 1178.0
2.90000, 1271.0
2.92000, 1170.0
2.94000, 1183.0
2.96000, 1211.0
2.98000, 1192.0
3.00000, 1241.0
3.02000, 1208.0
3.04000, 1189.0
3.06000, 1170.0
3.08000, 1278.0
3.10000, 1310.0
3.12000, 1496.0
3.14000, 1728.0
3.16000, 1999.0
3.18000, 2195.0
3.20000, 2312.0
3.22000, 2128.0
3.24000, 1906.0
3.26000, 1645.0
3.28000, 1431.0
3.30000, 1290.0
3.32000, 1327.0
3.34000, 1304.0
3.36000, 1357.0
3.38000, 1432.0
3.40000, 1557.0
3.42000, 1723.0
3.44000, 1848.0
3.46000, 1992.0
3.48000, 2403.0
3.50000, 3339.0
3.52000, 6018.0
3.54000, 10864.0
3.56000, 18435.0
3.58000, 26221.0
3.60000, 31509.0
3.62000, 31687.0
3.64000, 26115.0
3.66000, 17976.0
3.68000, 10746.0
3.70000, 5767.0
3.72000, 3355.0
3.74000, 2820.0
3.76000, 3808.0
3.78000, 6058.0
3.80000, 9388.0
3.82000, 13314.0
3.84000, 16068.0
3.86000, 16904.0
3.88000, 15406.0
3.90000, 12606.0
3.92000, 9920.0
3.94000, 7553.0
3.96000, 5732.0
3.98000, 4350.0
4.00000, 3420.0
4.02000, 2982.0
4.04000, 3189.0
4.06000, 4067.0
4.08000, 4968.0
4.10000, 5396.0
4.12000, 5264.0
4.14000, 4537.0
4.16000, 3405.0
4.18000, 2356.0
4.20000, 1615.0
4.22000, 1301.0
4.24000, 1091.0
4.26000, 1185.0
4.28000, 1356.0
4.30000, 1660.0
4.32000, 2005.0
4.34000, 2237.0
4.36000, 2232.0
4.38000, 2048.0
4.40000, 1687.0
4.42000, 1341.0
4.44000, 1055.0
4.46000, 888.0
4.48000, 839.0
4.50000, 861.0
4.52000, 924.0
4.54000, 1080.0
4.56000, 1264.0
4.58000, 1425.0
4.60000, 1391.0
4.62000, 1328.0
4.64000, 1269.0
4.66000, 1088.0
4.68000, 939.0
4.70000, 873.0
4.72000, 773.0
4.74000, 748.0
4.76000, 687.0
4.78000, 678.0
4.80000, 677.0
4.82000, 644.0
4.84000, 672.0
4.86000, 704.0
4.88000, 693.0
4.90000, 684.0
4.92000, 679.0
4.94000, 677.0
4.96000, 692.0
4.98000, 703.0
5.00000, 696.0
5.02000, 680.0
5.04000, 699.0
5.06000, 683.0
5.08000, 666.0
5.10000, 649.0
5.12000, 686.0
5.14000, 687.0
5.16000, 687.0
5.18000, 665.0
5.20000, 693.0
5.22000, 683.0
5.24000, 691.0
5.26000, 702.0
5.28000, 648.0
5.30000, 692.0
5.32000, 682.0
5.34000, 677.0
5.36000, 669.0
5.38000, 691.0
5.40000, 674.0
5.42000, 682.0
5.44000, 682.0
5.46000, 651.0
5.48000, 672.0
5.50000, 643.0
5.52000, 726.0
5.54000, 685.0
5.56000, 651.0
5.58000, 675.0
5.60000, 692.0
5.62000, 668.0
5.64000, 688.0
5.66000, 669.0
5.68000, 675.0
5.70000, 668.0
5.72000, 701.0
5.74000, 672.0
5.76000, 647.0
5.78000, 687.0
5.80000, 626.0
5.82000, 669.0
5.84000, 659.0
5.86000, 638.0
5.88000, 671.0
5.90000, 686.0
5.92000, 660.0
5.94000, 710.0
5.96000, 687.0
5.98000, 673.0
6.00000, 666.0
6.02000, 661.0
6.04000, 670.0
6.06000, 628.0
6.08000, 658.0
6.10000, 654.0
6.12000, 646.0
6.14000, 642.0
6.16000, 651.0
6.18000, 635.0
6.20000, 681.0
6.22000, 649.0
6.24000, 660.0
6.26000, 651.0
6.28000, 676.0
6.30000, 667.0
6.32000, 620.0
6.34000, 672.0
6.36000, 663.0
6.38000, 667.0
6.40000, 670.0
6.42000, 632.0
6.44000, 668.0
6.46000, 650.0
6.48000, 639.0
6.50000, 645.0
6.52000, 656.0
6.54000, 640.0
6.56000, 654.0
6.58000, 662.0
6.60000, 640.0
6.62000, 644.0
6.64000, 644.0
6.66000, 622.0
6.68000, 644.0
6.70000, 638.0
6.72000, 610.0
6.74000, 647.0
6.76000, 635.0
6.78000, 617.0
6.80000, 653.0
6.82000, 618.0
6.84000, 647.0
6.86000, 607.0
6.88000, 644.0
6.90000, 613.0
6.92000, 620.0
6.94000, 624.0
6.96000, 626.0
6.98000, 653.0
7.00000, 628.0
7.02000, 652.0
7.04000, 606.0
7.06000, 617.0
7.08000, 608.0
7.10000, 612.0
7.12000, 604.0
7.14000, 638.0
7.16000, 601.0
7.18000, 616.0
7.20000, 637.0
7.22000, 636.0
7.24000, 650.0
7.26000, 639.0
7.28000, 617.0
7.30000, 626.0
7.32000, 618.0
7.34000, 613.0
7.36000, 594.0
7.38000, 602.0
7.40000, 630.0
7.42000, 668.0
7.44000, 677.0
7.46000, 654.0
7.48000, 637.0
7.50000, 663.0
7.52000, 655.0
7.54000, 590.0
7.56000, 614.0
7.58000, 606.0
7.60000, 626.0
7.62000, 553.0
7.64000, 609.0
7.66000, 585.0
7.68000, 585.0
7.70000, 603.0
7.72000, 569.0
7.74000, 602.0
7.76000, 579.0
7.78000, 595.0
7.80000, 608.0
7.82000, 591.0
7.84000, 599.0
7.86000, 599.0
7.88000, 605.0
7.90000, 572.0
7.92000, 574.0
7.94000, 562.0
7.96000, 573.0
7.98000, 586.0
8.00000, 577.0
8.02000, 602.0
8.04000, 583.0
8.06000, 596.0
8.08000, 562.0
8.10000, 553.0
8.12000, 576.0
8.14000, 539.0
8.16000, 563.0
8.18000, 534.0
8.20000, 548.0
8.22000, 539.0
8.24000, 552.0
8.26000, 539.0
8.28000, 553.0
8.30000, 541.0
8.32000, 540.0
8.34000, 542.0
8.36000, 535.0
8.38000, 556.0
8.40000, 523.0
8.42000, 484.0
8.44000, 529.0
8.46000, 511.0
8.48000, 535.0
8.50000, 527.0
8.52000, 535.0
8.54000, 525.0
8.56000, 523.0
8.58000, 534.0
8.60000, 534.0
8.62000, 483.0
8.64000, 527.0
8.66000, 524.0
8.68000, 521.0
8.70000, 541.0
8.72000, 495.0
8.74000, 514.0
8.76000, 541.0
8.78000, 547.0
8.80000, 516.0
8.82000, 514.0
8.84000, 495.0
8.86000, 515.0
8.88000, 519.0
8.90000, 528.0
8.92000, 528.0
8.94000, 532.0
8.96000, 516.0
8.98000, 546.0
9.00000, 558.0
9.02000, 585.0
9.04000, 661.0
9.06000, 953.0
9.08000, 1248.0
9.10000, 1896.0
9.12000, 2968.0
9.14000, 4412.0
9.16000, 6311.0
9.18000, 8167.0
9.20000, 10173.0
9.22000, 11319.0
9.24000, 11559.0
9.26000, 11106.0
9.28000, 9785.0
9.30000, 7813.0
9.32000, 6004.0
9.34000, 4130.0
9.36000, 2720.0
9.38000, 1699.0
9.40000, 1157.0
9.42000, 782.0
9.44000, 613.0
9.46000, 529.0
9.48000, 501.0
9.50000, 504.0
9.52000, 469.0
9.54000, 485.0
9.56000, 494.0
9.58000, 510.0
9.60000, 474.0
9.62000, 465.0
9.64000, 474.0
9.66000, 468.0
9.68000, 458.0
9.70000, 431.0
9.72000, 453.0
9.74000, 483.0
9.76000, 448.0
9.78000, 458.0
9.80000, 453.0
9.82000, 461.0
9.84000, 449.0
9.86000, 456.0
9.88000, 464.0
9.90000, 466.0
9.92000, 467.0
9.94000, 453.0
9.96000, 445.0
9.98000, 478.0
10.00000, 455.0
10.02000, 478.0
10.04000, 447.0
10.06000, 481.0
10.08000, 540.0
10.10000, 605.0
10.12000, 724.0
10.14000, 828.0
10.16000, 1055.0
10.18000, 1292.0
10.20000, 1576.0
10.22000, 1821.0
10.24000, 1977.0
10.26000, 1931.0
10.28000, 1940.0
10.30000, 1709.0
10.32000, 1480.0
10.34000, 1196.0
10.36000, 953.0
10.38000, 771.0
10.40000, 643.0
10.42000, 566.0
10.44000, 461.0
10.46000, 409.0
10.48000, 399.0
10.50000, 399.0
10.52000, 378.0
10.54000, 380.0
10.56000, 360.0
10.58000, 379.0
10.60000, 403.0
10.62000, 373.0
10.64000, 373.0
10.66000, 366.0
10.68000, 389.0
10.70000, 352.0
10.72000, 373.0
10.74000, 375.0
10.76000, 362.0
10.78000, 401.0
10.80000, 355.0
10.82000, 356.0
10.84000, 351.0
10.86000, 367.0
10.88000, 379.0
10.90000, 327.0
10.92000, 333.0
10.94000, 361.0
10.96000, 343.0
10.98000, 371.0
11.00000, 359.0
11.02000, 337.0
11.04000, 363.0
11.06000, 337.0
11.08000, 330.0
11.10000, 349.0
11.12000, 322.0
11.14000, 343.0
11.16000, 335.0
11.18000, 329.0
11.20000, 352.0
11.22000, 333.0
11.24000, 335.0
11.26000, 338.0
11.28000, 339.0
11.30000, 351.0
11.32000, 324.0
11.34000, 329.0
11.36000, 350.0
11.38000, 338.0
11.40000, 332.0
11.42000, 337.0
11.44000, 329.0
11.46000, 323.0
11.48000, 321.0
11.50000, 310.0
11.52000, 327.0
11.54000, 357.0
11.56000, 336.0
11.58000, 301.0
11.60000, 336.0
11.62000, 342.0
11.64000, 315.0
11.66000, 319.0
11.68000, 312.0
11.70000, 298.0
11.72000, 309.0
11.74000, 300.0
11.76000, 309.0
11.78000, 298.0
11.80000, 304.0
11.82000, 280.0
11.84000, 305.0
11.86000, 321.0
11.88000, 328.0
11.90000, 306.0
11.92000, 312.0
11.94000, 296.0
11.96000, 294.0
11.98000, 319.0
12.00000, 311.0
12.02000, 296.0
12.04000, 276.0
12.06000, 295.0
12.08000, 298.0
12.10000, 312.0
12.12000, 268.0
12.14000, 309.0
12.16000, 300.0
12.18000, 305.0
12.20000, 316.0
12.22000, 305.0
12.24000, 298.0
12.26000, 292.0
12.28000, 314.0
12.30000, 285.0
12.32000, 279.0
12.34000, 304.0
12.36000, 286.0
12.38000, 310.0
12.40000, 276.0
12.42000, 288.0
12.44000, 290.0
12.46000, 284.0
12.48000, 284.0
12.50000, 255.0
12.52000, 308.0
12.54000, 298.0
12.56000, 263.0
12.58000, 279.0
12.60000, 286.0
12.62000, 291.0
12.64000, 281.0
12.66000, 273.0
12.68000, 274.0
12.70000, 282.0
12.72000, 296.0
12.74000, 259.0
12.76000, 298.0
12.78000, 285.0
12.80000, 293.0
12.82000, 301.0
12.84000, 275.0
12.86000, 281.0
12.88000, 310.0
12.90000, 256.0
12.92000, 276.0
12.94000, 284.0
12.96000, 297.0
12.98000, 269.0
13.00000, 282.0
13.02000, 283.0
13.04000, 259.0
13.06000, 294.0
13.08000, 243.0
13.10000, 277.0
13.12000, 269.0
13.14000, 272.0
13.16000, 259.0
13.18000, 272.0
13.20000, 269.0
13.22000, 240.0
13.24000, 267.0
13.26000, 250.0
13.28000, 244.0
13.30000, 263.0
13.32000, 259.0
13.34000, 251.0
13.36000, 236.0
13.38000, 242.0
13.40000, 229.0
13.42000, 230.0
13.44000, 229.0
13.46000, 243.0
13.48000, 232.0
13.50000, 254.0
13.52000, 234.0
13.54000, 226.0
13.56000, 234.0
13.58000, 222.0
13.60000, 239.0
13.62000, 240.0
13.64000, 236.0
13.66000, 235.0
13.68000, 249.0
13.70000, 233.0
13.72000, 229.0
13.74000, 227.0
13.76000, 231.0
13.78000, 214.0
13.80000, 218.0
13.82000, 240.0
13.84000, 207.0
13.86000, 224.0
13.88000, 218.0
13.90000, 199.0
13.92000, 215.0
13.94000, 218.0
13.96000, 210.0
13.98000, 217.0
14.00000, 207.0
14.02000, 206.0
14.04000, 220.0
14.06000, 207.0
14.08000, 221.0
14.10000, 197.0
14.12000, 212.0
14.14000, 197.0
14.16000, 209.0
14.18000, 223.0
14.20000, 214.0
14.22000, 204.0
14.24000, 201.0
14.26000, 188.0
14.28000, 209.0
14.30000, 206.0
14.32000, 209.0
14.34000, 196.0
14.36000, 203.0
14.38000, 197.0
14.40000, 191.0
14.42000, 196.0
14.44000, 192.0
14.46000, 210.0
14.48000, 191.0
14.50000, 188.0
14.52000, 179.0
14.54000, 196.0
14.56000, 189.0
14.58000, 175.0
14.60000, 190.0
14.62000, 183.0
14.64000, 180.0
14.66000, 173.0
14.68000, 176.0
14.70000, 191.0
14.72000, 183.0
14.74000, 198.0
14.76000, 180.0
14.78000, 169.0
14.80000, 186.0
14.82000, 175.0
14.84000, 181.0
14.86000, 155.0
14.88000, 177.0
14.90000, 188.0
14.92000, 193.0
14.94000, 179.0
14.96000, 168.0
14.98000, 174.0
15.00000, 158.0
15.02000, 172.0
15.04000, 174.0
15.06000, 160.0
15.08000, 182.0
15.10000, 165.0
15.12000, 172.0
15.14000, 180.0
15.16000, 172.0
15.18000, 143.0
15.20000, 163.0
15.22000, 156.0
15.24000, 160.0
15.26000, 148.0
15.28000, 138.0
15.30000, 150.0
15.32000, 153.0
15.34000, 165.0
15.36000, 160.0
15.38000, 151.0
15.40000, 171.0
15.42000, 161.0
15.44000, 164.0
15.46000, 152.0
15.48000, 148.0
15.50000, 156.0
15.52000, 151.0
15.54000, 137.0
15.56000, 151.0
15.58000, 147.0
15.60000, 149.0
15.62000, 142.0
15.64000, 134.0
15.66000, 158.0
15.68000, 139.0
15.70000, 176.0
15.72000, 160.0
15.74000, 136.0
15.76000, 163.0
15.78000, 157.0
15.80000, 138.0
15.82000, 130.0
15.84000, 138.0
15.86000, 141.0
15.88000, 141.0
15.90000, 142.0
15.92000, 134.0
15.94000, 130.0
15.96000, 129.0
15.98000, 124.0
16.00000, 131.0
16.02000, 118.0
16.04000, 155.0
16.06000, 122.0
16.08000, 130.0
16.10000, 139.0
16.12000, 141.0
16.14000, 135.0
16.16000, 127.0
16.18000, 128.0
16.20000, 138.0
16.22000, 125.0
16.24000, 131.0
16.26000, 124.0
16.28000, 131.0
16.30000, 118.0
16.32000, 138.0
16.34000, 139.0
16.36000, 128.0
16.38000, 130.0
16.40000, 128.0
16.42000, 130.0
16.44000, 130.0
16.46000, 128.0
16.48000, 133.0
16.50000, 127.0
16.52000, 133.0
16.54000, 117.0
16.56000, 130.0
16.58000, 122.0
16.60000, 124.0
16.62000, 125.0
16.64000, 122.0
16.66000, 123.0
16.68000, 117.0
16.70000, 124.0
16.72000, 117.0
16.74000, 102.0
16.76000, 113.0
16.78000, 112.0
16.80000, 121.0
16.82000, 136.0
16.84000, 127.0
16.86000, 112.0
16.88000, 105.0
16.90000, 110.0
16.92000, 98.0
16.94000, 109.0
16.96000, 117.0
16.98000, 106.0
17.00000, 110.0
17.02000, 105.0
17.04000, 117.0
17.06000, 102.0
17.08000, 107.0
17.10000, 98.0
17.12000, 120.0
17.14000, 113.0
17.16000, 112.0
17.18000, 109.0
17.20000, 106.0
17.22000, 122.0
17.24000, 101.0
17.26000, 109.0
17.28000, 109.0
17.30000, 114.0
17.32000, 107.0
17.34000, 100.0
17.36000, 105.0
17.38000, 91.0
17.40000, 91.0
17.42000, 111.0
17.44000, 93.0
17.46000, 91.0
17.48000, 96.0
17.50000, 88.0
17.52000, 109.0
17.54000, 104.0
17.56000, 110.0
17.58000, 95.0
17.60000, 110.0
17.62000, 82.0
17.64000, 106.0
17.66000, 92.0
17.68000, 97.0
17.70000, 83.0
17.72000, 88.0
17.74000, 102.0
17.76000, 89.0
17.78000, 96.0
17.80000, 78.0
17.82000, 90.0
17.84000, 101.0
17.86000, 94.0
17.88000, 79.0
17.90000, 100.0
17.92000, 101.0
17.94000, 83.0
17.96000, 84.0
17.98000, 76.0
18.00000, 77.0
18.02000, 81.0
18.04000, 75.0
18.06000, 84.0
18.08000, 89.0
18.10000, 83.0
18.12000, 87.0
18.14000, 85.0
18.16000, 87.0
18.18000, 77.0
18.20000, 80.0
18.22000, 94.0
18.24000, 94.0
18.26000, 88.0
18.28000, 83.0
18.30000, 89.0
18.32000, 70.0
18.34000, 76.0
18.36000, 91.0
18.38000, 84.0
18.40000, 95.0
18.42000, 90.0
18.44000, 84.0
18.46000, 81.0
18.48000, 85.0
18.50000, 82.0
18.52000, 87.0
18.54000, 87.0
18.56000, 86.0
18.58000, 87.0
18.60000, 70.0
18.62000, 80.0
18.64000, 84.0
18.66000, 70.0
18.68000, 73.0
18.70000, 81.0
18.72000, 72.0
18.74000, 67.0
18.76000, 75.0
18.78000, 69.0
18.80000, 82.0
18.82000, 80.0
18.84000, 64.0
18.86000, 69.0
18.88000, 70.0
18.90000, 62.0
18.92000, 63.0
18.94000, 71.0
18.96000, 77.0
18.98000, 63.0
19.00000, 66.0
19.02000, 66.0
19.04000, 66.0
19.06000, 68.0
19.08000, 62.0
19.10000, 56.0
19.12000, 73.0
19.14000, 69.0
19.16000, 69.0
19.18000, 69.0
19.20000, 72.0
19.22000, 59.0
19.24000, 67.0
19.26000, 63.0
19.28000, 63.0
19.30000, 68.0
19.32000, 63.0
19.34000, 71.0
19.36000, 55.0
19.38000, 67.0
19.40000, 69.0
19.42000, 61.0
19.44000, 66.0
19.46000, 74.0
19.48000, 71.0
19.50000, 65.0
19.52000, 63.0
19.54000, 56.0
19.56000, 57.0
19.58000, 68.0
19.60000, 63.0
19.62000, 64.0
19.64000, 66.0
19.66000, 57.0
19.68000, 57.0
19.70000, 54.0
19.72000, 62.0
19.74000, 61.0
19.76000, 54.0
19.78000, 64.0
19.80000, 61.0
19.82000, 55.0
19.84000, 50.0
19.86000, 59.0
19.88000, 56.0
19.90000, 55.0
19.92000, 58.0
19.94000, 55.0
19.96000, 60.0
19.98000, 57.0
20.00000, 55.0
20.02000, 45.0
20.04000, 61.0
20.06000, 61.0
20.08000, 65.0
20.10000, 46.0
20.12000, 54.0
20.14000, 58.0
20.16000, 47.0
20.18000, 46.0
20.20000, 47.0
20.22000, 43.0
20.24000, 50.0
20.26000, 49.0
20.27000, 49.0
#ENDOFDATA   :