File: data/exports/GaSb_15kV_200pA.emsa
#FORMAT      : EMSA/MAS Spectral Data File
#VERSION     : 1.0
#TITLE       : GaSb_15kV_200pA_processTime6
#DATE        : 08-MAR-2023
#TIME        : 15:45
#OWNER       :
#NPOINTS     : 2048.0
#NCOLUMNS    : 1.0
#XUNITS      : keV
#YUNITS      : counts
#DATATYPE    : XY
#XPERCHAN    : 0.01
#OFFSET      : -0.2
#SIGNALTYPE  : EDS
#CHOFFSET    : 20.0
#LIVETIME    : 61.9191
#REALTIME    : 130.952
#BEAMKV      : 15.0
#MAGCAM      : 4894.0
#XTILTSTGE   : 0.0
#AZIMANGLE   : 0.0
#ELEVANGLE   : 35.0
#XPOSITION mm: -7.7878
#YPOSITION mm: 1.3232
#ZPOSITION mm: 10.0002
##OXINSTPT   : 6
##OXINSTSTROB: 31.87
##OXINSTNDET : 1
##OXINSTELEMS: 31,51
##OXINSTLABEL: 31, 9.252, Ga
##OXINSTLABEL: 31, 10.264, Ga
##OXINSTLABEL: 31, 1.098, Ga
##OXINSTLABEL: 31, 0.984, Ga
##OXINSTLABEL: 31, 0.957, Ga
##OXINSTLABEL: 51, 3.605, Sb
##OXINSTLABEL: 51, 3.844, Sb
##OXINSTLABEL: 51, 4.101, Sb
##OXINSTLABEL: 51, 3.437, Sb
##OXINSTLABEL: 51, 4.348, Sb
##OXINSTLABEL: 51, 4.600, Sb
##OXINSTLABEL: 51, 3.189, Sb
##OXINSTLABEL: 51, 0.429, Sb
#SPECTRUM    : Spectral Data Starts Here
-0.20000, 0.0
-0.18000, 0.0
-0.16000, 0.0
-0.14000, 0.0
-0.12000, 0.0
-0.10000, 0.0
-0.08000, 0.0
-0.06000, 12.0
-0.04000, 75.0
-0.02000, 968.0
0.00000, 4498.0
0.02000, 3917.0
0.04000, 694.0
0.06000, 118.0
0.08000, 153.0
0.10000, 235.0
0.12000, 329.0
0.14000, 419.0
0.16000, 534.0
0.18000, 537.0
0.20000, 586.0
0.22000, 822.0
0.24000, 1352.0
0.26000, 2125.0
0.28000, 1893.0
0.30000, 865.0
0.32000, 476.0
0.34000, 585.0
0.36000, 760.0
0.38000, 1367.0
0.40000, 2582.0
0.42000, 3731.0
0.44000, 3318.0
0.46000, 2086.0
0.48000, 1649.0
0.50000, 1912.0
0.52000, 2109.0
0.54000, 1723.0
0.56000, 1028.0
0.58000, 737.0
0.60000, 724.0
0.62000, 756.0
0.64000, 798.0
0.66000, 784.0
0.68000, 867.0
0.70000, 947.0
0.72000, 1167.0
0.74000, 1391.0
0.76000, 1303.0
0.78000, 1221.0
0.80000, 1167.0
0.82000, 1091.0
0.84000, 1066.0
0.86000, 1091.0
0.88000, 1181.0
0.90000, 1208.0
0.92000, 1443.0
0.94000, 1989.0
0.96000, 2386.0
0.98000, 2375.0
1.00000, 2069.0
1.02000, 1992.0
1.04000, 3253.0
1.06000, 7598.0
1.08000, 16830.0
1.10000, 24558.0
1.12000, 22895.0
1.14000, 14355.0
1.16000, 6555.0
1.18000, 2686.0
1.20000, 1602.0
1.22000, 1269.0
1.24000, 1143.0
1.26000, 1080.0
1.28000, 1043.0
1.30000, 1046.0
1.32000, 1019.0
1.34000, 1043.0
1.36000, 1040.0
1.38000, 1067.0
1.40000, 1080.0
1.42000, 1130.0
1.44000, 1154.0
1.46000, 1137.0
1.48000, 1182.0
1.50000, 1123.0
1.52000, 1133.0
1.54000, 1113.0
1.56000, 1153.0
1.58000, 1180.0
1.60000, 1139.0
1.62000, 1187.0
1.64000, 1166.0
1.66000, 1172.0
1.68000, 1221.0
1.70000, 1325.0
1.72000, 1349.0
1.74000, 1459.0
1.76000, 1494.0
1.78000, 1387.0
1.80000, 1371.0
1.82000, 1414.0
1.84000, 1462.0
1.86000, 1473.0
1.88000, 1449.0
1.90000, 1354.0
1.92000, 1264.0
1.94000, 1250.0
1.96000, 1209.0
1.98000, 1249.0
2.00000, 1170.0
2.02000, 1188.0
2.04000, 1273.0
2.06000, 1307.0
2.08000, 1325.0
2.10000, 1296.0
2.12000, 1359.0
2.14000, 1265.0
2.16000, 1235.0
2.18000, 1290.0
2.20000, 1280.0
2.22000, 1240.0
2.24000, 1284.0
2.26000, 1236.0
2.28000, 1254.0
2.30000, 1243.0
2.32000, 1216.0
2.34000, 1229.0
2.36000, 1249.0
2.38000, 1262.0
2.40000, 1273.0
2.42000, 1239.0
2.44000, 1218.0
2.46000, 1186.0
2.48000, 1217.0
2.50000, 1212.0
2.52000, 1234.0
2.54000, 1220.0
2.56000, 1157.0
2.58000, 1174.0
2.60000, 1208.0
2.62000, 1192.0
2.64000, 1177.0
2.66000, 1198.0
2.68000, 1174.0
2.70000, 1169.0
2.72000, 1165.0
2.74000, 1159.0
2.76000, 1157.0
2.78000, 1118.0
2.80000, 1114.0
2.82000, 1155.0
2.84000, 1141.0
2.86000, 1105.0
2.88000, 1130.0
2.90000, 1122.0
2.92000, 1105.0
2.94000, 1116.0
2.96000, 1094.0
2.98000, 1052.0
3.00000, 1072.0
3.02000, 1086.0
3.04000, 1126.0
3.06000, 1092.0
3.08000, 1063.0
3.10000, 1144.0
3.12000, 1191.0
3.14000, 1378.0
3.16000, 1531.0
3.18000, 1712.0
3.20000, 1836.0
3.22000, 1667.0
3.24000, 1484.0
3.26000, 1308.0
3.28000, 1143.0
3.30000, 1035.0
3.32000, 1027.0
3.34000, 1064.0
3.36000, 1109.0
3.38000, 1146.0
3.40000, 1154.0
3.42000, 1226.0
3.44000, 1350.0
3.46000, 1382.0
3.48000, 1583.0
3.50000, 2002.0
3.52000, 3305.0
3.54000, 6020.0
3.56000, 10563.0
3.58000, 15650.0
3.60000, 19157.0
3.62000, 19301.0
3.64000, 15527.0
3.66000, 10379.0
3.68000, 5843.0
3.70000, 3125.0
3.72000, 1863.0
3.74000, 1633.0
3.76000, 2030.0
3.78000, 3333.0
3.80000, 5191.0
3.82000, 7366.0
3.84000, 9142.0
3.86000, 9508.0
3.88000, 8489.0
3.90000, 7020.0
3.92000, 5283.0
3.94000, 4050.0
3.96000, 3099.0
3.98000, 2409.0
4.00000, 1851.0
4.02000, 1715.0
4.04000, 1909.0
4.06000, 2361.0
4.08000, 2779.0
4.10000, 3235.0
4.12000, 3102.0
4.14000, 2665.0
4.16000, 2008.0
4.18000, 1483.0
4.20000, 1131.0
4.22000, 894.0
4.24000, 828.0
4.26000, 848.0
4.28000, 980.0
4.30000, 1217.0
4.32000, 1397.0
4.34000, 1490.0
4.36000, 1555.0
4.38000, 1452.0
4.40000, 1209.0
4.42000, 945.0
4.44000, 794.0
4.46000, 722.0
4.48000, 692.0
4.50000, 742.0
4.52000, 710.0
4.54000, 870.0
4.56000, 936.0
4.58000, 1059.0
4.60000, 1056.0
4.62000, 964.0
4.64000, 884.0
4.66000, 852.0
4.68000, 755.0
4.70000, 705.0
4.72000, 688.0
4.74000, 661.0
4.76000, 626.0
4.78000, 594.0
4.80000, 616.0
4.82000, 582.0
4.84000, 571.0
4.86000, 569.0
4.88000, 578.0
4.90000, 571.0
4.92000, 602.0
4.94000, 575.0
4.96000, 578.0
4.98000, 577.0
5.00000, 575.0
5.02000, 557.0
5.04000, 572.0
5.06000, 562.0
5.08000, 579.0
5.10000, 549.0
5.12000, 560.0
5.14000, 548.0
5.16000, 539.0
5.18000, 546.0
5.20000, 593.0
5.22000, 492.0
5.24000, 582.0
5.26000, 520.0
5.28000, 522.0
5.30000, 549.0
5.32000, 528.0
5.34000, 533.0
5.36000, 556.0
5.38000, 547.0
5.40000, 514.0
5.42000, 491.0
5.44000, 529.0
5.46000, 478.0
5.48000, 509.0
5.50000, 500.0
5.52000, 492.0
5.54000, 510.0
5.56000, 512.0
5.58000, 515.0
5.60000, 501.0
5.62000, 511.0
5.64000, 484.0
5.66000, 475.0
5.68000, 477.0
5.70000, 483.0
5.72000, 487.0
5.74000, 496.0
5.76000, 491.0
5.78000, 519.0
5.80000, 482.0
5.82000, 472.0
5.84000, 457.0
5.86000, 503.0
5.88000, 464.0
5.90000, 471.0
5.92000, 455.0
5.94000, 483.0
5.96000, 466.0
5.98000, 461.0
6.00000, 459.0
6.02000, 451.0
6.04000, 460.0
6.06000, 446.0
6.08000, 464.0
6.10000, 466.0
6.12000, 464.0
6.14000, 434.0
6.16000, 438.0
6.18000, 448.0
6.20000, 434.0
6.22000, 411.0
6.24000, 452.0
6.26000, 444.0
6.28000, 432.0
6.30000, 441.0
6.32000, 422.0
6.34000, 442.0
6.36000, 419.0
6.38000, 438.0
6.40000, 414.0
6.42000, 434.0
6.44000, 399.0
6.46000, 449.0
6.48000, 442.0
6.50000, 411.0
6.52000, 410.0
6.54000, 412.0
6.56000, 394.0
6.58000, 392.0
6.60000, 426.0
6.62000, 405.0
6.64000, 410.0
6.66000, 404.0
6.68000, 395.0
6.70000, 401.0
6.72000, 383.0
6.74000, 375.0
6.76000, 384.0
6.78000, 379.0
6.80000, 406.0
6.82000, 383.0
6.84000, 384.0
6.86000, 399.0
6.88000, 367.0
6.90000, 379.0
6.92000, 397.0
6.94000, 379.0
6.96000, 377.0
6.98000, 384.0
7.00000, 371.0
7.02000, 381.0
7.04000, 358.0
7.06000, 367.0
7.08000, 360.0
7.10000, 373.0
7.12000, 378.0
7.14000, 380.0
7.16000, 365.0
7.18000, 360.0
7.20000, 377.0
7.22000, 366.0
7.24000, 352.0
7.26000, 381.0
7.28000, 372.0
7.30000, 347.0
7.32000, 358.0
7.34000, 365.0
7.36000, 329.0
7.38000, 353.0
7.40000, 362.0
7.42000, 366.0
7.44000, 358.0
7.46000, 364.0
7.48000, 351.0
7.50000, 338.0
7.52000, 333.0
7.54000, 355.0
7.56000, 342.0
7.58000, 344.0
7.60000, 334.0
7.62000, 327.0
7.64000, 335.0
7.66000, 331.0
7.68000, 342.0
7.70000, 313.0
7.72000, 299.0
7.74000, 326.0
7.76000, 316.0
7.78000, 324.0
7.80000, 342.0
7.82000, 325.0
7.84000, 311.0
7.86000, 292.0
7.88000, 311.0
7.90000, 290.0
7.92000, 319.0
7.94000, 331.0
7.96000, 311.0
7.98000, 301.0
8.00000, 304.0
8.02000, 312.0
8.04000, 291.0
8.06000, 307.0
8.08000, 296.0
8.10000, 281.0
8.12000, 295.0
8.14000, 270.0
8.16000, 317.0
8.18000, 305.0
8.20000, 295.0
8.22000, 279.0
8.24000, 295.0
8.26000, 272.0
8.28000, 289.0
8.30000, 278.0
8.32000, 250.0
8.34000, 284.0
8.36000, 270.0
8.38000, 295.0
8.40000, 274.0
8.42000, 268.0
8.44000, 267.0
8.46000, 259.0
8.48000, 261.0
8.50000, 255.0
8.52000, 257.0
8.54000, 266.0
8.56000, 280.0
8.58000, 282.0
8.60000, 258.0
8.62000, 263.0
8.64000, 254.0
8.66000, 260.0
8.68000, 270.0
8.70000, 258.0
8.72000, 249.0
8.74000, 246.0
8.76000, 267.0
8.78000, 249.0
8.80000, 240.0
8.82000, 255.0
8.84000, 243.0
8.86000, 234.0
8.88000, 260.0
8.90000, 244.0
8.92000, 214.0
8.94000, 236.0
8.96000, 228.0
8.98000, 249.0
9.00000, 253.0
9.02000, 255.0
9.04000, 276.0
9.06000, 298.0
9.08000, 349.0
9.10000, 449.0
9.12000, 568.0
9.14000, 815.0
9.16000, 1093.0
9.18000, 1385.0
9.20000, 1691.0
9.22000, 1886.0
9.24000, 1997.0
9.26000, 1870.0
9.28000, 1569.0
9.30000, 1346.0
9.32000, 989.0
9.34000, 742.0
9.36000, 550.0
9.38000, 400.0
9.40000, 300.0
9.42000, 243.0
9.44000, 223.0
9.46000, 218.0
9.48000, 228.0
9.50000, 225.0
9.52000, 218.0
9.54000, 205.0
9.56000, 213.0
9.58000, 202.0
9.60000, 217.0
9.62000, 208.0
9.64000, 206.0
9.66000, 188.0
9.68000, 205.0
9.70000, 196.0
9.72000, 164.0
9.74000, 171.0
9.76000, 195.0
9.78000, 182.0
9.80000, 192.0
9.82000, 198.0
9.84000, 197.0
9.86000, 184.0
9.88000, 202.0
9.90000, 183.0
9.92000, 198.0
9.94000, 184.0
9.96000, 186.0
9.98000, 177.0
10.00000, 172.0
10.02000, 179.0
10.04000, 215.0
10.06000, 206.0
10.08000, 192.0
10.10000, 183.0
10.12000, 220.0
10.14000, 212.0
10.16000, 283.0
10.18000, 304.0
10.20000, 315.0
10.22000, 376.0
10.24000, 410.0
10.26000, 416.0
10.28000, 378.0
10.30000, 361.0
10.32000, 312.0
10.34000, 272.0
10.36000, 259.0
10.38000, 206.0
10.40000, 196.0
10.42000, 180.0
10.44000, 169.0
10.46000, 182.0
10.48000, 167.0
10.50000, 155.0
10.52000, 160.0
10.54000, 149.0
10.56000, 140.0
10.58000, 141.0
10.60000, 145.0
10.62000, 140.0
10.64000, 143.0
10.66000, 138.0
10.68000, 132.0
10.70000, 167.0
10.72000, 140.0
10.74000, 136.0
10.76000, 154.0
10.78000, 133.0
10.80000, 140.0
10.82000, 151.0
10.84000, 139.0
10.86000, 128.0
10.88000, 139.0
10.90000, 138.0
10.92000, 134.0
10.94000, 128.0
10.96000, 138.0
10.98000, 134.0
11.00000, 151.0
11.02000, 131.0
11.04000, 137.0
11.06000, 130.0
11.08000, 124.0
11.10000, 126.0
11.12000, 131.0
11.14000, 120.0
11.16000, 132.0
11.18000, 119.0
11.20000, 131.0
11.22000, 133.0
11.24000, 123.0
11.26000, 126.0
11.28000, 119.0
11.30000, 119.0
11.32000, 116.0
11.34000, 104.0
11.36000, 107.0
11.38000, 118.0
11.40000, 107.0
11.42000, 104.0
11.44000, 124.0
11.46000, 109.0
11.48000, 106.0
11.50000, 108.0
11.52000, 117.0
11.54000, 108.0
11.56000, 103.0
11.58000, 111.0
11.60000, 110.0
11.62000, 122.0
11.64000, 100.0
11.66000, 89.0
11.68000, 94.0
11.70000, 97.0
11.72000, 116.0
11.74000, 106.0
11.76000, 101.0
11.78000, 103.0
11.80000, 100.0
11.82000, 98.0
11.84000, 88.0
11.86000, 92.0
11.88000, 98.0
11.90000, 97.0
11.92000, 92.0
11.94000, 100.0
11.96000, 94.0
11.98000, 104.0
12.00000, 84.0
12.02000, 89.0
12.04000, 83.0
12.06000, 94.0
12.08000, 105.0
12.10000, 85.0
12.12000, 78.0
12.14000, 85.0
12.16000, 81.0
12.18000, 88.0
12.20000, 89.0
12.22000, 73.0
12.24000, 77.0
12.26000, 77.0
12.28000, 81.0
12.30000, 74.0
12.32000, 76.0
12.34000, 75.0
12.36000, 82.0
12.38000, 76.0
12.40000, 80.0
12.42000, 74.0
12.44000, 77.0
12.46000, 73.0
12.48000, 73.0
12.50000, 83.0
12.52000, 67.0
12.54000, 70.0
12.56000, 69.0
12.58000, 78.0
12.60000, 54.0
12.62000, 71.0
12.64000, 75.0
12.66000, 71.0
12.68000, 78.0
12.70000, 72.0
12.72000, 65.0
12.74000, 70.0
12.76000, 65.0
12.78000, 80.0
12.80000, 63.0
12.82000, 69.0
12.84000, 79.0
12.86000, 62.0
12.88000, 57.0
12.90000, 71.0
12.92000, 66.0
12.94000, 55.0
12.96000, 59.0
12.98000, 66.0
13.00000, 49.0
13.02000, 67.0
13.04000, 58.0
13.06000, 57.0
13.08000, 68.0
13.10000, 63.0
13.12000, 58.0
13.14000, 60.0
13.16000, 47.0
13.18000, 44.0
13.20000, 52.0
13.22000, 42.0
13.24000, 51.0
13.26000, 51.0
13.28000, 46.0
13.30000, 44.0
13.32000, 51.0
13.34000, 50.0
13.36000, 46.0
13.38000, 57.0
13.40000, 43.0
13.42000, 45.0
13.44000, 38.0
13.46000, 45.0
13.48000, 42.0
13.50000, 44.0
13.52000, 41.0
13.54000, 42.0
13.56000, 45.0
13.58000, 35.0
13.60000, 31.0
13.62000, 36.0
13.64000, 39.0
13.66000, 35.0
13.68000, 42.0
13.70000, 41.0
13.72000, 34.0
13.74000, 31.0
13.76000, 41.0
13.78000, 34.0
13.80000, 30.0
13.82000, 38.0
13.84000, 36.0
13.86000, 38.0
13.88000, 31.0
13.90000, 36.0
13.92000, 30.0
13.94000, 39.0
13.96000, 35.0
13.98000, 31.0
14.00000, 26.0
14.02000, 22.0
14.04000, 28.0
14.06000, 31.0
14.08000, 24.0
14.10000, 25.0
14.12000, 27.0
14.14000, 26.0
14.16000, 29.0
14.18000, 23.0
14.20000, 20.0
14.22000, 22.0
14.24000, 24.0
14.26000, 17.0
14.28000, 24.0
14.30000, 22.0
14.32000, 22.0
14.34000, 18.0
14.36000, 15.0
14.38000, 14.0
14.40000, 18.0
14.42000, 18.0
14.44000, 16.0
14.46000, 16.0
14.48000, 16.0
14.50000, 22.0
14.52000, 13.0
14.54000, 16.0
14.56000, 15.0
14.58000, 11.0
14.60000, 7.0
14.62000, 11.0
14.64000, 7.0
14.66000, 12.0
14.68000, 10.0
14.70000, 13.0
14.72000, 11.0
14.74000, 6.0
14.76000, 4.0
14.78000, 8.0
14.80000, 7.0
14.82000, 7.0
14.84000, 11.0
14.86000, 6.0
14.88000, 6.0
14.90000, 3.0
14.92000, 6.0
14.94000, 2.0
14.96000, 3.0
14.98000, 4.0
15.00000, 5.0
15.02000, 1.0
15.04000, 3.0
15.06000, 2.0
15.08000, 2.0
15.10000, 1.0
15.12000, 2.0
15.14000, 2.0
15.16000, 2.0
15.18000, 1.0
15.20000, 3.0
15.22000, 3.0
15.24000, 3.0
15.26000, 2.0
15.28000, 3.0
15.30000, 3.0
15.32000, 1.0
15.34000, 2.0
15.36000, 1.0
15.38000, 2.0
15.40000, 1.0
15.42000, 0.0
15.44000, 2.0
15.46000, 1.0
15.48000, 1.0
15.50000, 3.0
15.52000, 2.0
15.54000, 1.0
15.56000, 1.0
15.58000, 2.0
15.60000, 1.0
15.62000, 2.0
15.64000, 2.0
15.66000, 1.0
15.68000, 3.0
15.70000, 3.0
15.72000, 1.0
15.74000, 0.0
15.76000, 1.0
15.78000, 2.0
15.80000, 2.0
15.82000, 2.0
15.84000, 0.0
15.86000, 0.0
15.88000, 2.0
15.90000, 3.0
15.92000, 1.0
15.94000, 1.0
15.96000, 3.0
15.98000, 1.0
16.00000, 2.0
16.02000, 1.0
16.04000, 1.0
16.06000, 0.0
16.08000, 3.0
16.10000, 2.0
16.12000, 2.0
16.14000, 1.0
16.16000, 1.0
16.18000, 1.0
16.20000, 2.0
16.22000, 2.0
16.24000, 1.0
16.26000, 1.0
16.28000, 2.0
16.30000, 1.0
16.32000, 1.0
16.34000, 2.0
16.36000, 2.0
16.38000, 2.0
16.40000, 2.0
16.42000, 3.0
16.44000, 2.0
16.46000, 2.0
16.48000, 1.0
16.50000, 4.0
16.52000, 1.0
16.54000, 0.0
16.56000, 2.0
16.58000, 1.0
16.60000, 2.0
16.62000, 0.0
16.64000, 2.0
16.66000, 0.0
16.68000, 1.0
16.70000, 1.0
16.72000, 2.0
16.74000, 0.0
16.76000, 1.0
16.78000, 1.0
16.80000, 0.0
16.82000, 1.0
16.84000, 2.0
16.86000, 1.0
16.88000, 3.0
16.90000, 2.0
16.92000, 0.0
16.94000, 1.0
16.96000, 1.0
16.98000, 0.0
17.00000, 1.0
17.02000, 1.0
17.04000, 0.0
17.06000, 0.0
17.08000, 1.0
17.10000, 0.0
17.12000, 1.0
17.14000, 0.0
17.16000, 1.0
17.18000, 2.0
17.20000, 1.0
17.22000, 0.0
17.24000, 2.0
17.26000, 1.0
17.28000, 0.0
17.30000, 1.0
17.32000, 1.0
17.34000, 1.0
17.36000, 0.0
17.38000, 0.0
17.40000, 0.0
17.42000, 1.0
17.44000, 0.0
17.46000, 1.0
17.48000, 1.0
17.50000, 0.0
17.52000, 2.0
17.54000, 0.0
17.56000, 1.0
17.58000, 1.0
17.60000, 0.0
17.62000, 1.0
17.64000, 1.0
17.66000, 1.0
17.68000, 0.0
17.70000, 0.0
17.72000, 2.0
17.74000, 0.0
17.76000, 1.0
17.78000, 1.0
17.80000, 2.0
17.82000, 1.0
17.84000, 0.0
17.86000, 0.0
17.88000, 0.0
17.90000, 0.0
17.92000, 1.0
17.94000, 1.0
17.96000, 0.0
17.98000, 0.0
18.00000, 0.0
18.02000, 0.0
18.04000, 1.0
18.06000, 0.0
18.08000, 1.0
18.10000, 0.0
18.12000, 1.0
18.14000, 1.0
18.16000, 0.0
18.18000, 0.0
18.20000, 1.0
18.22000, 0.0
18.24000, 1.0
18.26000, 0.0
18.28000, 1.0
18.30000, 1.0
18.32000, 0.0
18.34000, 1.0
18.36000, 1.0
18.38000, 1.0
18.40000, 0.0
18.42000, 1.0
18.44000, 1.0
18.46000, 1.0
18.48000, 2.0
18.50000, 0.0
18.52000, 3.0
18.54000, 2.0
18.56000, 1.0
18.58000, 0.0
18.60000, 1.0
18.62000, 1.0
18.64000, 0.0
18.66000, 0.0
18.68000, 0.0
18.70000, 0.0
18.72000, 0.0
18.74000, 0.0
18.76000, 1.0
18.78000, 1.0
18.80000, 0.0
18.82000, 1.0
18.84000, 0.0
18.86000, 1.0
18.88000, 0.0
18.90000, 0.0
18.92000, 0.0
18.94000, 0.0
18.96000, 0.0
18.98000, 0.0
19.00000, 1.0
19.02000, 0.0
19.04000, 0.0
19.06000, 1.0
19.08000, 0.0
19.10000, 0.0
19.12000, 1.0
19.14000, 0.0
19.16000, 0.0
19.18000, 0.0
19.20000, 0.0
19.22000, 0.0
19.24000, 1.0
19.26000, 0.0
19.28000, 0.0
19.30000, 0.0
19.32000, 0.0
19.34000, 1.0
19.36000, 0.0
19.38000, 1.0
19.40000, 1.0
19.42000, 1.0
19.44000, 1.0
19.46000, 0.0
19.48000, 0.0
19.50000, 0.0
19.52000, 0.0
19.54000, 0.0
19.56000, 2.0
19.58000, 0.0
19.60000, 1.0
19.62000, 0.0
19.64000, 0.0
19.66000, 0.0
19.68000, 0.0
19.70000, 1.0
19.72000, 1.0
19.74000, 0.0
19.76000, 0.0
19.78000, 0.0
19.80000, 0.0
19.82000, 0.0
19.84000, 0.0
19.86000, 0.0
19.88000, 1.0
19.90000, 0.0
19.92000, 0.0
19.94000, 0.0
19.96000, 0.0
19.98000, 1.0
20.00000, 0.0
20.02000, 1.0
20.04000, 0.0
20.06000, 1.0
20.08000, 0.0
20.10000, 1.0
20.12000, 1.0
20.14000, 0.0
20.16000, 0.0
20.18000, 0.0
20.20000, 0.0
20.22000, 0.0
20.24000, 0.0
20.26000, 0.0
20.27000, 0.0
#ENDOFDATA   :