File: data/exports/GaSb_15kV_400pA.emsa
#FORMAT      : EMSA/MAS Spectral Data File
#VERSION     : 1.0
#TITLE       : GaSb_15kV_400pA_processTime6
#DATE        : 08-MAR-2023
#TIME        : 15:39
#OWNER       :
#NPOINTS     : 2048.0
#NCOLUMNS    : 1.0
#XUNITS      : keV
#YUNITS      : counts
#DATATYPE    : XY
#XPERCHAN    : 0.01
#OFFSET      : -0.2
#SIGNALTYPE  : EDS
#CHOFFSET    : 20.0
#LIVETIME    : 57.511
#REALTIME    : 252.662
#BEAMKV      : 15.0
#MAGCAM      : 4894.0
#XTILTSTGE   : 0.0
#AZIMANGLE   : 0.0
#ELEVANGLE   : 35.0
#XPOSITION mm: -7.7878
#YPOSITION mm: 1.3232
#ZPOSITION mm: 10.0002
##OXINSTPT   : 6
##OXINSTSTROB: 33.23
##OXINSTNDET : 1
##OXINSTELEMS: 31,51,6,8,14
##OXINSTLABEL: 31, 9.252, Ga
##OXINSTLABEL: 31, 10.264, Ga
##OXINSTLABEL: 31, 1.098, Ga
##OXINSTLABEL: 31, 0.984, Ga
##OXINSTLABEL: 31, 0.957, Ga
##OXINSTLABEL: 51, 3.605, Sb
##OXINSTLABEL: 51, 3.844, Sb
##OXINSTLABEL: 51, 4.101, Sb
##OXINSTLABEL: 51, 3.437, Sb
##OXINSTLABEL: 51, 4.348, Sb
##OXINSTLABEL: 51, 4.600, Sb
##OXINSTLABEL: 51, 3.189, Sb
##OXINSTLABEL: 51, 0.429, Sb
##OXINSTLABEL: 6, 0.277, C
##OXINSTLABEL: 8, 0.525, O
##OXINSTLABEL: 14, 1.740, Si
#SPECTRUM    : Spectral Data Starts Here
-0.20000, 0.0
-0.18000, 0.0
-0.16000, 0.0
-0.14000, 0.0
-0.12000, 0.0
-0.10000, 0.0
-0.08000, 1.0
-0.06000, 24.0
-0.04000, 125.0
-0.02000, 895.0
0.00000, 3706.0
0.02000, 3125.0
0.04000, 612.0
0.06000, 180.0
0.08000, 254.0
0.10000, 394.0
0.12000, 509.0
0.14000, 740.0
0.16000, 938.0
0.18000, 966.0
0.20000, 1086.0
0.22000, 1550.0
0.24000, 2543.0
0.26000, 4083.0
0.28000, 3637.0
0.30000, 1640.0
0.32000, 920.0
0.34000, 1088.0
0.36000, 1555.0
0.38000, 2587.0
0.40000, 4679.0
0.42000, 6785.0
0.44000, 6038.0
0.46000, 3936.0
0.48000, 3175.0
0.50000, 3665.0
0.52000, 4089.0
0.54000, 3358.0
0.56000, 1979.0
0.58000, 1367.0
0.60000, 1364.0
0.62000, 1401.0
0.64000, 1400.0
0.66000, 1533.0
0.68000, 1576.0
0.70000, 1833.0
0.72000, 2258.0
0.74000, 2424.0
0.76000, 2485.0
0.78000, 2277.0
0.80000, 2065.0
0.82000, 2060.0
0.84000, 2000.0
0.86000, 2068.0
0.88000, 2015.0
0.90000, 2266.0
0.92000, 2748.0
0.94000, 3614.0
0.96000, 4386.0
0.98000, 4264.0
1.00000, 3858.0
1.02000, 3827.0
1.04000, 6335.0
1.06000, 14613.0
1.08000, 30827.0
1.10000, 44566.0
1.12000, 42241.0
1.14000, 26529.0
1.16000, 12240.0
1.18000, 5107.0
1.20000, 3009.0
1.22000, 2378.0
1.24000, 2124.0
1.26000, 1965.0
1.28000, 1929.0
1.30000, 1905.0
1.32000, 1936.0
1.34000, 1994.0
1.36000, 2053.0
1.38000, 1995.0
1.40000, 2035.0
1.42000, 2034.0
1.44000, 1989.0
1.46000, 2185.0
1.48000, 2174.0
1.50000, 2155.0
1.52000, 2203.0
1.54000, 2263.0
1.56000, 2197.0
1.58000, 2149.0
1.60000, 2173.0
1.62000, 2207.0
1.64000, 2236.0
1.66000, 2218.0
1.68000, 2280.0
1.70000, 2488.0
1.72000, 2583.0
1.74000, 2702.0
1.76000, 2759.0
1.78000, 2633.0
1.80000, 2591.0
1.82000, 2597.0
1.84000, 2713.0
1.86000, 2724.0
1.88000, 2618.0
1.90000, 2479.0
1.92000, 2354.0
1.94000, 2280.0
1.96000, 2271.0
1.98000, 2222.0
2.00000, 2279.0
2.02000, 2249.0
2.04000, 2341.0
2.06000, 2349.0
2.08000, 2440.0
2.10000, 2447.0
2.12000, 2435.0
2.14000, 2425.0
2.16000, 2407.0
2.18000, 2478.0
2.20000, 2442.0
2.22000, 2340.0
2.24000, 2353.0
2.26000, 2331.0
2.28000, 2381.0
2.30000, 2318.0
2.32000, 2249.0
2.34000, 2332.0
2.36000, 2327.0
2.38000, 2292.0
2.40000, 2251.0
2.42000, 2270.0
2.44000, 2169.0
2.46000, 2241.0
2.48000, 2251.0
2.50000, 2282.0
2.52000, 2263.0
2.54000, 2187.0
2.56000, 2197.0
2.58000, 2227.0
2.60000, 2171.0
2.62000, 2240.0
2.64000, 2216.0
2.66000, 2248.0
2.68000, 2163.0
2.70000, 2157.0
2.72000, 2214.0
2.74000, 2204.0
2.76000, 2112.0
2.78000, 2165.0
2.80000, 2122.0
2.82000, 2051.0
2.84000, 2089.0
2.86000, 2077.0
2.88000, 2072.0
2.90000, 2116.0
2.92000, 1999.0
2.94000, 2032.0
2.96000, 2046.0
2.98000, 2083.0
3.00000, 2054.0
3.02000, 2037.0
3.04000, 2008.0
3.06000, 2006.0
3.08000, 2110.0
3.10000, 2088.0
3.12000, 2299.0
3.14000, 2515.0
3.16000, 2901.0
3.18000, 3183.0
3.20000, 3349.0
3.22000, 3103.0
3.24000, 2718.0
3.26000, 2350.0
3.28000, 2143.0
3.30000, 2010.0
3.32000, 1918.0
3.34000, 1969.0
3.36000, 2070.0
3.38000, 2050.0
3.40000, 2156.0
3.42000, 2319.0
3.44000, 2489.0
3.46000, 2587.0
3.48000, 2922.0
3.50000, 3783.0
3.52000, 6247.0
3.54000, 11223.0
3.56000, 19470.0
3.58000, 28711.0
3.60000, 35190.0
3.62000, 35202.0
3.64000, 28589.0
3.66000, 19234.0
3.68000, 10833.0
3.70000, 5930.0
3.72000, 3504.0
3.74000, 3065.0
3.76000, 3853.0
3.78000, 6163.0
3.80000, 9566.0
3.82000, 13484.0
3.84000, 16770.0
3.86000, 17469.0
3.88000, 15672.0
3.90000, 12710.0
3.92000, 9927.0
3.94000, 7550.0
3.96000, 5716.0
3.98000, 4494.0
4.00000, 3495.0
4.02000, 3254.0
4.04000, 3602.0
4.06000, 4335.0
4.08000, 5250.0
4.10000, 5873.0
4.12000, 5801.0
4.14000, 4982.0
4.16000, 3792.0
4.18000, 2750.0
4.20000, 2028.0
4.22000, 1723.0
4.24000, 1569.0
4.26000, 1639.0
4.28000, 1880.0
4.30000, 2165.0
4.32000, 2613.0
4.34000, 2842.0
4.36000, 2888.0
4.38000, 2739.0
4.40000, 2282.0
4.42000, 1890.0
4.44000, 1566.0
4.46000, 1399.0
4.48000, 1318.0
4.50000, 1291.0
4.52000, 1427.0
4.54000, 1637.0
4.56000, 1780.0
4.58000, 1919.0
4.60000, 1983.0
4.62000, 1915.0
4.64000, 1773.0
4.66000, 1560.0
4.68000, 1495.0
4.70000, 1417.0
4.72000, 1344.0
4.74000, 1285.0
4.76000, 1222.0
4.78000, 1177.0
4.80000, 1125.0
4.82000, 1133.0
4.84000, 1097.0
4.86000, 1039.0
4.88000, 1086.0
4.90000, 1119.0
4.92000, 1096.0
4.94000, 1097.0
4.96000, 1134.0
4.98000, 1152.0
5.00000, 1096.0
5.02000, 1069.0
5.04000, 1072.0
5.06000, 1071.0
5.08000, 1047.0
5.10000, 1049.0
5.12000, 994.0
5.14000, 994.0
5.16000, 1068.0
5.18000, 1014.0
5.20000, 1046.0
5.22000, 1070.0
5.24000, 1045.0
5.26000, 1043.0
5.28000, 977.0
5.30000, 1002.0
5.32000, 1001.0
5.34000, 1010.0
5.36000, 1020.0
5.38000, 981.0
5.40000, 1021.0
5.42000, 983.0
5.44000, 1042.0
5.46000, 990.0
5.48000, 981.0
5.50000, 985.0
5.52000, 994.0
5.54000, 945.0
5.56000, 973.0
5.58000, 945.0
5.60000, 950.0
5.62000, 926.0
5.64000, 936.0
5.66000, 934.0
5.68000, 888.0
5.70000, 953.0
5.72000, 970.0
5.74000, 943.0
5.76000, 949.0
5.78000, 935.0
5.80000, 922.0
5.82000, 899.0
5.84000, 902.0
5.86000, 912.0
5.88000, 885.0
5.90000, 869.0
5.92000, 905.0
5.94000, 908.0
5.96000, 875.0
5.98000, 916.0
6.00000, 907.0
6.02000, 888.0
6.04000, 882.0
6.06000, 873.0
6.08000, 879.0
6.10000, 854.0
6.12000, 844.0
6.14000, 873.0
6.16000, 860.0
6.18000, 844.0
6.20000, 831.0
6.22000, 854.0
6.24000, 811.0
6.26000, 842.0
6.28000, 826.0
6.30000, 850.0
6.32000, 812.0
6.34000, 851.0
6.36000, 818.0
6.38000, 834.0
6.40000, 791.0
6.42000, 823.0
6.44000, 810.0
6.46000, 771.0
6.48000, 809.0
6.50000, 816.0
6.52000, 786.0
6.54000, 804.0
6.56000, 746.0
6.58000, 781.0
6.60000, 773.0
6.62000, 808.0
6.64000, 755.0
6.66000, 747.0
6.68000, 762.0
6.70000, 767.0
6.72000, 756.0
6.74000, 786.0
6.76000, 748.0
6.78000, 723.0
6.80000, 778.0
6.82000, 753.0
6.84000, 749.0
6.86000, 747.0
6.88000, 734.0
6.90000, 723.0
6.92000, 728.0
6.94000, 705.0
6.96000, 729.0
6.98000, 669.0
7.00000, 733.0
7.02000, 736.0
7.04000, 736.0
7.06000, 712.0
7.08000, 696.0
7.10000, 717.0
7.12000, 696.0
7.14000, 720.0
7.16000, 739.0
7.18000, 747.0
7.20000, 759.0
7.22000, 750.0
7.24000, 740.0
7.26000, 754.0
7.28000, 722.0
7.30000, 676.0
7.32000, 725.0
7.34000, 680.0
7.36000, 698.0
7.38000, 719.0
7.40000, 689.0
7.42000, 706.0
7.44000, 739.0
7.46000, 692.0
7.48000, 752.0
7.50000, 737.0
7.52000, 703.0
7.54000, 698.0
7.56000, 654.0
7.58000, 645.0
7.60000, 624.0
7.62000, 665.0
7.64000, 635.0
7.66000, 631.0
7.68000, 653.0
7.70000, 678.0
7.72000, 665.0
7.74000, 684.0
7.76000, 631.0
7.78000, 638.0
7.80000, 647.0
7.82000, 644.0
7.84000, 580.0
7.86000, 602.0
7.88000, 591.0
7.90000, 566.0
7.92000, 595.0
7.94000, 587.0
7.96000, 577.0
7.98000, 595.0
8.00000, 590.0
8.02000, 614.0
8.04000, 601.0
8.06000, 579.0
8.08000, 527.0
8.10000, 528.0
8.12000, 584.0
8.14000, 568.0
8.16000, 598.0
8.18000, 549.0
8.20000, 555.0
8.22000, 543.0
8.24000, 594.0
8.26000, 539.0
8.28000, 536.0
8.30000, 529.0
8.32000, 515.0
8.34000, 515.0
8.36000, 543.0
8.38000, 523.0
8.40000, 540.0
8.42000, 504.0
8.44000, 516.0
8.46000, 492.0
8.48000, 535.0
8.50000, 530.0
8.52000, 520.0
8.54000, 510.0
8.56000, 493.0
8.58000, 496.0
8.60000, 522.0
8.62000, 482.0
8.64000, 502.0
8.66000, 514.0
8.68000, 492.0
8.70000, 484.0
8.72000, 465.0
8.74000, 494.0
8.76000, 464.0
8.78000, 478.0
8.80000, 459.0
8.82000, 474.0
8.84000, 478.0
8.86000, 463.0
8.88000, 482.0
8.90000, 458.0
8.92000, 442.0
8.94000, 505.0
8.96000, 446.0
8.98000, 478.0
9.00000, 449.0
9.02000, 477.0
9.04000, 523.0
9.06000, 556.0
9.08000, 644.0
9.10000, 770.0
9.12000, 1145.0
9.14000, 1496.0
9.16000, 1977.0
9.18000, 2574.0
9.20000, 3085.0
9.22000, 3524.0
9.24000, 3654.0
9.26000, 3480.0
9.28000, 3147.0
9.30000, 2470.0
9.32000, 1906.0
9.34000, 1384.0
9.36000, 1005.0
9.38000, 736.0
9.40000, 554.0
9.42000, 485.0
9.44000, 455.0
9.46000, 425.0
9.48000, 388.0
9.50000, 420.0
9.52000, 418.0
9.54000, 406.0
9.56000, 395.0
9.58000, 403.0
9.60000, 409.0
9.62000, 401.0
9.64000, 374.0
9.66000, 384.0
9.68000, 374.0
9.70000, 378.0
9.72000, 389.0
9.74000, 396.0
9.76000, 363.0
9.78000, 373.0
9.80000, 372.0
9.82000, 365.0
9.84000, 400.0
9.86000, 382.0
9.88000, 366.0
9.90000, 350.0
9.92000, 335.0
9.94000, 379.0
9.96000, 370.0
9.98000, 340.0
10.00000, 353.0
10.02000, 350.0
10.04000, 365.0
10.06000, 364.0
10.08000, 379.0
10.10000, 389.0
10.12000, 397.0
10.14000, 425.0
10.16000, 507.0
10.18000, 567.0
10.20000, 629.0
10.22000, 695.0
10.24000, 747.0
10.26000, 753.0
10.28000, 770.0
10.30000, 659.0
10.32000, 621.0
10.34000, 550.0
10.36000, 439.0
10.38000, 427.0
10.40000, 374.0
10.42000, 346.0
10.44000, 321.0
10.46000, 298.0
10.48000, 315.0
10.50000, 299.0
10.52000, 282.0
10.54000, 281.0
10.56000, 286.0
10.58000, 287.0
10.60000, 301.0
10.62000, 296.0
10.64000, 294.0
10.66000, 269.0
10.68000, 293.0
10.70000, 283.0
10.72000, 287.0
10.74000, 292.0
10.76000, 268.0
10.78000, 292.0
10.80000, 279.0
10.82000, 282.0
10.84000, 281.0
10.86000, 274.0
10.88000, 272.0
10.90000, 247.0
10.92000, 285.0
10.94000, 256.0
10.96000, 272.0
10.98000, 256.0
11.00000, 256.0
11.02000, 240.0
11.04000, 253.0
11.06000, 255.0
11.08000, 259.0
11.10000, 241.0
11.12000, 249.0
11.14000, 248.0
11.16000, 243.0
11.18000, 232.0
11.20000, 237.0
11.22000, 235.0
11.24000, 253.0
11.26000, 248.0
11.28000, 259.0
11.30000, 211.0
11.32000, 235.0
11.34000, 236.0
11.36000, 252.0
11.38000, 241.0
11.40000, 232.0
11.42000, 240.0
11.44000, 233.0
11.46000, 231.0
11.48000, 223.0
11.50000, 221.0
11.52000, 213.0
11.54000, 228.0
11.56000, 212.0
11.58000, 224.0
11.60000, 196.0
11.62000, 213.0
11.64000, 209.0
11.66000, 226.0
11.68000, 209.0
11.70000, 181.0
11.72000, 202.0
11.74000, 197.0
11.76000, 196.0
11.78000, 210.0
11.80000, 203.0
11.82000, 207.0
11.84000, 202.0
11.86000, 180.0
11.88000, 185.0
11.90000, 191.0
11.92000, 186.0
11.94000, 176.0
11.96000, 179.0
11.98000, 171.0
12.00000, 191.0
12.02000, 179.0
12.04000, 161.0
12.06000, 194.0
12.08000, 161.0
12.10000, 191.0
12.12000, 174.0
12.14000, 174.0
12.16000, 173.0
12.18000, 168.0
12.20000, 174.0
12.22000, 167.0
12.24000, 161.0
12.26000, 167.0
12.28000, 165.0
12.30000, 146.0
12.32000, 164.0
12.34000, 160.0
12.36000, 162.0
12.38000, 148.0
12.40000, 172.0
12.42000, 164.0
12.44000, 139.0
12.46000, 157.0
12.48000, 159.0
12.50000, 140.0
12.52000, 129.0
12.54000, 144.0
12.56000, 147.0
12.58000, 144.0
12.60000, 139.0
12.62000, 135.0
12.64000, 145.0
12.66000, 137.0
12.68000, 139.0
12.70000, 132.0
12.72000, 139.0
12.74000, 141.0
12.76000, 134.0
12.78000, 146.0
12.80000, 139.0
12.82000, 125.0
12.84000, 150.0
12.86000, 133.0
12.88000, 126.0
12.90000, 120.0
12.92000, 131.0
12.94000, 111.0
12.96000, 119.0
12.98000, 120.0
13.00000, 111.0
13.02000, 131.0
13.04000, 135.0
13.06000, 109.0
13.08000, 119.0
13.10000, 124.0
13.12000, 112.0
13.14000, 114.0
13.16000, 119.0
13.18000, 111.0
13.20000, 97.0
13.22000, 107.0
13.24000, 106.0
13.26000, 91.0
13.28000, 110.0
13.30000, 92.0
13.32000, 100.0
13.34000, 91.0
13.36000, 110.0
13.38000, 88.0
13.40000, 82.0
13.42000, 94.0
13.44000, 96.0
13.46000, 98.0
13.48000, 83.0
13.50000, 77.0
13.52000, 84.0
13.54000, 88.0
13.56000, 79.0
13.58000, 88.0
13.60000, 82.0
13.62000, 65.0
13.64000, 77.0
13.66000, 82.0
13.68000, 74.0
13.70000, 76.0
13.72000, 72.0
13.74000, 78.0
13.76000, 61.0
13.78000, 77.0
13.80000, 72.0
13.82000, 75.0
13.84000, 68.0
13.86000, 73.0
13.88000, 60.0
13.90000, 70.0
13.92000, 55.0
13.94000, 64.0
13.96000, 65.0
13.98000, 54.0
14.00000, 56.0
14.02000, 53.0
14.04000, 66.0
14.06000, 63.0
14.08000, 55.0
14.10000, 62.0
14.12000, 52.0
14.14000, 55.0
14.16000, 50.0
14.18000, 51.0
14.20000, 44.0
14.22000, 49.0
14.24000, 42.0
14.26000, 43.0
14.28000, 45.0
14.30000, 42.0
14.32000, 51.0
14.34000, 50.0
14.36000, 40.0
14.38000, 40.0
14.40000, 42.0
14.42000, 32.0
14.44000, 37.0
14.46000, 36.0
14.48000, 33.0
14.50000, 38.0
14.52000, 32.0
14.54000, 23.0
14.56000, 32.0
14.58000, 24.0
14.60000, 30.0
14.62000, 31.0
14.64000, 25.0
14.66000, 25.0
14.68000, 29.0
14.70000, 23.0
14.72000, 27.0
14.74000, 22.0
14.76000, 19.0
14.78000, 23.0
14.80000, 20.0
14.82000, 19.0
14.84000, 16.0
14.86000, 16.0
14.88000, 17.0
14.90000, 14.0
14.92000, 15.0
14.94000, 13.0
14.96000, 9.0
14.98000, 12.0
15.00000, 6.0
15.02000, 10.0
15.04000, 10.0
15.06000, 8.0
15.08000, 8.0
15.10000, 7.0
15.12000, 8.0
15.14000, 3.0
15.16000, 7.0
15.18000, 11.0
15.20000, 10.0
15.22000, 11.0
15.24000, 4.0
15.26000, 11.0
15.28000, 6.0
15.30000, 7.0
15.32000, 8.0
15.34000, 10.0
15.36000, 8.0
15.38000, 8.0
15.40000, 6.0
15.42000, 9.0
15.44000, 11.0
15.46000, 9.0
15.48000, 8.0
15.50000, 9.0
15.52000, 5.0
15.54000, 6.0
15.56000, 6.0
15.58000, 6.0
15.60000, 8.0
15.62000, 6.0
15.64000, 8.0
15.66000, 6.0
15.68000, 7.0
15.70000, 8.0
15.72000, 6.0
15.74000, 5.0
15.76000, 8.0
15.78000, 6.0
15.80000, 3.0
15.82000, 5.0
15.84000, 7.0
15.86000, 3.0
15.88000, 3.0
15.90000, 6.0
15.92000, 2.0
15.94000, 6.0
15.96000, 5.0
15.98000, 5.0
16.00000, 3.0
16.02000, 4.0
16.04000, 5.0
16.06000, 5.0
16.08000, 6.0
16.10000, 5.0
16.12000, 3.0
16.14000, 9.0
16.16000, 7.0
16.18000, 4.0
16.20000, 7.0
16.22000, 4.0
16.24000, 3.0
16.26000, 4.0
16.28000, 5.0
16.30000, 7.0
16.32000, 4.0
16.34000, 6.0
16.36000, 7.0
16.38000, 6.0
16.40000, 6.0
16.42000, 4.0
16.44000, 4.0
16.46000, 5.0
16.48000, 7.0
16.50000, 3.0
16.52000, 3.0
16.54000, 3.0
16.56000, 4.0
16.58000, 4.0
16.60000, 5.0
16.62000, 5.0
16.64000, 3.0
16.66000, 6.0
16.68000, 3.0
16.70000, 5.0
16.72000, 7.0
16.74000, 5.0
16.76000, 3.0
16.78000, 5.0
16.80000, 6.0
16.82000, 3.0
16.84000, 3.0
16.86000, 5.0
16.88000, 4.0
16.90000, 4.0
16.92000, 5.0
16.94000, 3.0
16.96000, 7.0
16.98000, 4.0
17.00000, 2.0
17.02000, 4.0
17.04000, 3.0
17.06000, 9.0
17.08000, 2.0
17.10000, 3.0
17.12000, 3.0
17.14000, 4.0
17.16000, 3.0
17.18000, 4.0
17.20000, 3.0
17.22000, 3.0
17.24000, 3.0
17.26000, 4.0
17.28000, 4.0
17.30000, 4.0
17.32000, 5.0
17.34000, 4.0
17.36000, 5.0
17.38000, 5.0
17.40000, 2.0
17.42000, 1.0
17.44000, 5.0
17.46000, 3.0
17.48000, 4.0
17.50000, 3.0
17.52000, 5.0
17.54000, 3.0
17.56000, 2.0
17.58000, 3.0
17.60000, 5.0
17.62000, 4.0
17.64000, 1.0
17.66000, 3.0
17.68000, 3.0
17.70000, 2.0
17.72000, 2.0
17.74000, 1.0
17.76000, 2.0
17.78000, 3.0
17.80000, 2.0
17.82000, 4.0
17.84000, 2.0
17.86000, 4.0
17.88000, 3.0
17.90000, 4.0
17.92000, 5.0
17.94000, 3.0
17.96000, 3.0
17.98000, 3.0
18.00000, 3.0
18.02000, 2.0
18.04000, 2.0
18.06000, 3.0
18.08000, 1.0
18.10000, 0.0
18.12000, 1.0
18.14000, 3.0
18.16000, 3.0
18.18000, 2.0
18.20000, 4.0
18.22000, 1.0
18.24000, 4.0
18.26000, 1.0
18.28000, 3.0
18.30000, 3.0
18.32000, 1.0
18.34000, 3.0
18.36000, 2.0
18.38000, 3.0
18.40000, 5.0
18.42000, 2.0
18.44000, 4.0
18.46000, 1.0
18.48000, 4.0
18.50000, 2.0
18.52000, 2.0
18.54000, 4.0
18.56000, 2.0
18.58000, 4.0
18.60000, 2.0
18.62000, 2.0
18.64000, 1.0
18.66000, 0.0
18.68000, 1.0
18.70000, 2.0
18.72000, 1.0
18.74000, 1.0
18.76000, 3.0
18.78000, 1.0
18.80000, 0.0
18.82000, 2.0
18.84000, 1.0
18.86000, 0.0
18.88000, 2.0
18.90000, 2.0
18.92000, 3.0
18.94000, 4.0
18.96000, 1.0
18.98000, 1.0
19.00000, 2.0
19.02000, 1.0
19.04000, 2.0
19.06000, 1.0
19.08000, 3.0
19.10000, 0.0
19.12000, 0.0
19.14000, 2.0
19.16000, 2.0
19.18000, 4.0
19.20000, 2.0
19.22000, 2.0
19.24000, 1.0
19.26000, 1.0
19.28000, 2.0
19.30000, 2.0
19.32000, 1.0
19.34000, 2.0
19.36000, 2.0
19.38000, 1.0
19.40000, 1.0
19.42000, 2.0
19.44000, 1.0
19.46000, 1.0
19.48000, 2.0
19.50000, 2.0
19.52000, 1.0
19.54000, 1.0
19.56000, 2.0
19.58000, 1.0
19.60000, 1.0
19.62000, 3.0
19.64000, 3.0
19.66000, 1.0
19.68000, 2.0
19.70000, 1.0
19.72000, 0.0
19.74000, 1.0
19.76000, 1.0
19.78000, 0.0
19.80000, 1.0
19.82000, 0.0
19.84000, 2.0
19.86000, 0.0
19.88000, 2.0
19.90000, 0.0
19.92000, 3.0
19.94000, 4.0
19.96000, 0.0
19.98000, 1.0
20.00000, 0.0
20.02000, 0.0
20.04000, 1.0
20.06000, 1.0
20.08000, 0.0
20.10000, 1.0
20.12000, 1.0
20.14000, 1.0
20.16000, 1.0
20.18000, 0.0
20.20000, 1.0
20.22000, 2.0
20.24000, 0.0
20.26000, 0.0
20.27000, 1.0
#ENDOFDATA   :