File: data/exports/GaSb_30kV_50pA_processTime2.emsa
#FORMAT      : EMSA/MAS Spectral Data File
#VERSION     : 1.0
#TITLE       : GaSb_30kV_50pA_processTime2
#DATE        : 08-MAR-2023
#TIME        : 15:03
#OWNER       :
#NPOINTS     : 2048.0
#NCOLUMNS    : 1.0
#XUNITS      : keV
#YUNITS      : counts
#DATATYPE    : XY
#XPERCHAN    : 0.01
#OFFSET      : -0.2
#SIGNALTYPE  : EDS
#CHOFFSET    : 20.0
#LIVETIME    : 120.0
#REALTIME    : 128.89
#BEAMKV      : 30.0
#MAGCAM      : 4894.0
#XTILTSTGE   : 0.0
#AZIMANGLE   : 0.0
#ELEVANGLE   : 35.0
#XPOSITION mm: -8.1703
#YPOSITION mm: 1.2743
#ZPOSITION mm: 10.0002
##OXINSTPT   : 2
##OXINSTSTROB: 71.99
##OXINSTNDET : 1
##OXINSTELEMS: 25,26,27,28,29,13,6,8
##OXINSTLABEL: 25, 5.899, Mn
##OXINSTLABEL: 25, 6.490, Mn
##OXINSTLABEL: 25, 0.636, Mn
##OXINSTLABEL: 25, 0.556, Mn
##OXINSTLABEL: 26, 6.404, Fe
##OXINSTLABEL: 26, 7.058, Fe
##OXINSTLABEL: 26, 0.703, Fe
##OXINSTLABEL: 26, 0.615, Fe
##OXINSTLABEL: 27, 6.930, Co
##OXINSTLABEL: 27, 7.650, Co
##OXINSTLABEL: 27, 0.776, Co
##OXINSTLABEL: 27, 0.694, Co
##OXINSTLABEL: 27, 0.678, Co
##OXINSTLABEL: 28, 7.478, Ni
##OXINSTLABEL: 28, 8.265, Ni
##OXINSTLABEL: 28, 0.851, Ni
##OXINSTLABEL: 28, 0.762, Ni
##OXINSTLABEL: 28, 0.743, Ni
##OXINSTLABEL: 29, 8.048, Cu
##OXINSTLABEL: 29, 8.905, Cu
##OXINSTLABEL: 29, 0.930, Cu
##OXINSTLABEL: 29, 0.832, Cu
##OXINSTLABEL: 29, 0.811, Cu
##OXINSTLABEL: 13, 1.487, Al
##OXINSTLABEL: 6, 0.277, C
##OXINSTLABEL: 8, 0.525, O
#SPECTRUM    : Spectral Data Starts Here
-0.20000, 0.0
-0.18000, 0.0
-0.16000, 0.0
-0.14000, 0.0
-0.12000, 0.0
-0.10000, 0.0
-0.08000, 4.0
-0.06000, 21.0
-0.04000, 134.0
-0.02000, 594.0
0.00000, 1665.0
0.02000, 3338.0
0.04000, 4633.0
0.06000, 4426.0
0.08000, 2977.0
0.10000, 1426.0
0.12000, 562.0
0.14000, 272.0
0.16000, 256.0
0.18000, 293.0
0.20000, 386.0
0.22000, 550.0
0.24000, 800.0
0.26000, 1046.0
0.28000, 1069.0
0.30000, 841.0
0.32000, 535.0
0.34000, 431.0
0.36000, 535.0
0.38000, 764.0
0.40000, 1067.0
0.42000, 1267.0
0.44000, 1258.0
0.46000, 1097.0
0.48000, 925.0
0.50000, 893.0
0.52000, 862.0
0.54000, 763.0
0.56000, 600.0
0.58000, 464.0
0.60000, 365.0
0.62000, 347.0
0.64000, 371.0
0.66000, 384.0
0.68000, 402.0
0.70000, 460.0
0.72000, 492.0
0.74000, 554.0
0.76000, 565.0
0.78000, 550.0
0.80000, 513.0
0.82000, 503.0
0.84000, 499.0
0.86000, 530.0
0.88000, 577.0
0.90000, 661.0
0.92000, 778.0
0.94000, 893.0
0.96000, 1004.0
0.98000, 1113.0
1.00000, 1215.0
1.02000, 1693.0
1.04000, 2991.0
1.06000, 5244.0
1.08000, 7636.0
1.10000, 9188.0
1.12000, 9070.0
1.14000, 7009.0
1.16000, 4384.0
1.18000, 2300.0
1.20000, 1272.0
1.22000, 800.0
1.24000, 627.0
1.26000, 560.0
1.28000, 540.0
1.30000, 526.0
1.32000, 514.0
1.34000, 504.0
1.36000, 560.0
1.38000, 596.0
1.40000, 563.0
1.42000, 608.0
1.44000, 611.0
1.46000, 638.0
1.48000, 650.0
1.50000, 663.0
1.52000, 701.0
1.54000, 637.0
1.56000, 688.0
1.58000, 700.0
1.60000, 715.0
1.62000, 687.0
1.64000, 743.0
1.66000, 769.0
1.68000, 848.0
1.70000, 950.0
1.72000, 1034.0
1.74000, 1110.0
1.76000, 1082.0
1.78000, 1066.0
1.80000, 1085.0
1.82000, 1102.0
1.84000, 1095.0
1.86000, 1139.0
1.88000, 1161.0
1.90000, 1042.0
1.92000, 1010.0
1.94000, 921.0
1.96000, 892.0
1.98000, 889.0
2.00000, 899.0
2.02000, 938.0
2.04000, 945.0
2.06000, 1032.0
2.08000, 1032.0
2.10000, 1066.0
2.12000, 1070.0
2.14000, 1072.0
2.16000, 1037.0
2.18000, 1083.0
2.20000, 1042.0
2.22000, 1040.0
2.24000, 976.0
2.26000, 994.0
2.28000, 1061.0
2.30000, 1051.0
2.32000, 1043.0
2.34000, 1046.0
2.36000, 1096.0
2.38000, 1103.0
2.40000, 1068.0
2.42000, 1055.0
2.44000, 1116.0
2.46000, 1074.0
2.48000, 1079.0
2.50000, 1083.0
2.52000, 1118.0
2.54000, 1129.0
2.56000, 1132.0
2.58000, 1163.0
2.60000, 1114.0
2.62000, 1090.0
2.64000, 1174.0
2.66000, 1133.0
2.68000, 1144.0
2.70000, 1151.0
2.72000, 1140.0
2.74000, 1119.0
2.76000, 1138.0
2.78000, 1196.0
2.80000, 1127.0
2.82000, 1202.0
2.84000, 1165.0
2.86000, 1210.0
2.88000, 1138.0
2.90000, 1176.0
2.92000, 1189.0
2.94000, 1133.0
2.96000, 1171.0
2.98000, 1154.0
3.00000, 1237.0
3.02000, 1196.0
3.04000, 1207.0
3.06000, 1273.0
3.08000, 1319.0
3.10000, 1415.0
3.12000, 1549.0
3.14000, 1725.0
3.16000, 1985.0
3.18000, 2148.0
3.20000, 2210.0
3.22000, 2111.0
3.24000, 1838.0
3.26000, 1697.0
3.28000, 1499.0
3.30000, 1384.0
3.32000, 1329.0
3.34000, 1336.0
3.36000, 1414.0
3.38000, 1460.0
3.40000, 1520.0
3.42000, 1758.0
3.44000, 1855.0
3.46000, 2165.0
3.48000, 2958.0
3.50000, 4521.0
3.52000, 7439.0
3.54000, 12548.0
3.56000, 18899.0
3.58000, 24820.0
3.60000, 28348.0
3.62000, 28266.0
3.64000, 24068.0
3.66000, 18047.0
3.68000, 11858.0
3.70000, 7213.0
3.72000, 4594.0
3.74000, 3775.0
3.76000, 4628.0
3.78000, 6785.0
3.80000, 9727.0
3.82000, 12574.0
3.84000, 14853.0
3.86000, 15569.0
3.88000, 14601.0
3.90000, 12657.0
3.92000, 10190.0
3.94000, 7841.0
3.96000, 6002.0
3.98000, 4611.0
4.00000, 3669.0
4.02000, 3445.0
4.04000, 3593.0
4.06000, 4190.0
4.08000, 4703.0
4.10000, 4939.0
4.12000, 4849.0
4.14000, 4288.0
4.16000, 3378.0
4.18000, 2522.0
4.20000, 1833.0
4.22000, 1467.0
4.24000, 1213.0
4.26000, 1246.0
4.28000, 1440.0
4.30000, 1704.0
4.32000, 1891.0
4.34000, 2111.0
4.36000, 2028.0
4.38000, 1942.0
4.40000, 1678.0
4.42000, 1357.0
4.44000, 1075.0
4.46000, 937.0
4.48000, 879.0
4.50000, 918.0
4.52000, 947.0
4.54000, 1121.0
4.56000, 1262.0
4.58000, 1311.0
4.60000, 1328.0
4.62000, 1257.0
4.64000, 1196.0
4.66000, 1073.0
4.68000, 946.0
4.70000, 843.0
4.72000, 773.0
4.74000, 738.0
4.76000, 725.0
4.78000, 647.0
4.80000, 696.0
4.82000, 664.0
4.84000, 696.0
4.86000, 671.0
4.88000, 655.0
4.90000, 693.0
4.92000, 714.0
4.94000, 656.0
4.96000, 684.0
4.98000, 663.0
5.00000, 668.0
5.02000, 696.0
5.04000, 662.0
5.06000, 637.0
5.08000, 665.0
5.10000, 700.0
5.12000, 685.0
5.14000, 643.0
5.16000, 677.0
5.18000, 672.0
5.20000, 705.0
5.22000, 712.0
5.24000, 675.0
5.26000, 692.0
5.28000, 652.0
5.30000, 682.0
5.32000, 691.0
5.34000, 710.0
5.36000, 702.0
5.38000, 693.0
5.40000, 656.0
5.42000, 723.0
5.44000, 703.0
5.46000, 694.0
5.48000, 695.0
5.50000, 705.0
5.52000, 681.0
5.54000, 691.0
5.56000, 667.0
5.58000, 690.0
5.60000, 658.0
5.62000, 700.0
5.64000, 679.0
5.66000, 677.0
5.68000, 666.0
5.70000, 672.0
5.72000, 669.0
5.74000, 657.0
5.76000, 710.0
5.78000, 671.0
5.80000, 679.0
5.82000, 660.0
5.84000, 685.0
5.86000, 681.0
5.88000, 704.0
5.90000, 669.0
5.92000, 677.0
5.94000, 666.0
5.96000, 641.0
5.98000, 650.0
6.00000, 684.0
6.02000, 672.0
6.04000, 654.0
6.06000, 658.0
6.08000, 666.0
6.10000, 665.0
6.12000, 658.0
6.14000, 666.0
6.16000, 654.0
6.18000, 675.0
6.20000, 702.0
6.22000, 679.0
6.24000, 661.0
6.26000, 678.0
6.28000, 651.0
6.30000, 654.0
6.32000, 644.0
6.34000, 648.0
6.36000, 680.0
6.38000, 648.0
6.40000, 690.0
6.42000, 692.0
6.44000, 654.0
6.46000, 644.0
6.48000, 632.0
6.50000, 641.0
6.52000, 641.0
6.54000, 671.0
6.56000, 625.0
6.58000, 637.0
6.60000, 640.0
6.62000, 605.0
6.64000, 643.0
6.66000, 622.0
6.68000, 638.0
6.70000, 634.0
6.72000, 631.0
6.74000, 590.0
6.76000, 638.0
6.78000, 645.0
6.80000, 618.0
6.82000, 668.0
6.84000, 610.0
6.86000, 604.0
6.88000, 582.0
6.90000, 647.0
6.92000, 686.0
6.94000, 643.0
6.96000, 622.0
6.98000, 612.0
7.00000, 601.0
7.02000, 617.0
7.04000, 614.0
7.06000, 638.0
7.08000, 604.0
7.10000, 621.0
7.12000, 608.0
7.14000, 616.0
7.16000, 656.0
7.18000, 639.0
7.20000, 663.0
7.22000, 675.0
7.24000, 678.0
7.26000, 568.0
7.28000, 638.0
7.30000, 651.0
7.32000, 620.0
7.34000, 606.0
7.36000, 576.0
7.38000, 622.0
7.40000, 580.0
7.42000, 647.0
7.44000, 637.0
7.46000, 629.0
7.48000, 641.0
7.50000, 616.0
7.52000, 647.0
7.54000, 646.0
7.56000, 605.0
7.58000, 592.0
7.60000, 635.0
7.62000, 590.0
7.64000, 614.0
7.66000, 601.0
7.68000, 626.0
7.70000, 634.0
7.72000, 609.0
7.74000, 587.0
7.76000, 549.0
7.78000, 587.0
7.80000, 587.0
7.82000, 597.0
7.84000, 573.0
7.86000, 584.0
7.88000, 576.0
7.90000, 553.0
7.92000, 604.0
7.94000, 548.0
7.96000, 602.0
7.98000, 567.0
8.00000, 581.0
8.02000, 572.0
8.04000, 587.0
8.06000, 547.0
8.08000, 551.0
8.10000, 536.0
8.12000, 539.0
8.14000, 576.0
8.16000, 568.0
8.18000, 543.0
8.20000, 530.0
8.22000, 538.0
8.24000, 531.0
8.26000, 558.0
8.28000, 531.0
8.30000, 524.0
8.32000, 554.0
8.34000, 534.0
8.36000, 518.0
8.38000, 512.0
8.40000, 528.0
8.42000, 551.0
8.44000, 525.0
8.46000, 507.0
8.48000, 553.0
8.50000, 556.0
8.52000, 498.0
8.54000, 545.0
8.56000, 516.0
8.58000, 524.0
8.60000, 536.0
8.62000, 526.0
8.64000, 530.0
8.66000, 519.0
8.68000, 505.0
8.70000, 524.0
8.72000, 508.0
8.74000, 541.0
8.76000, 508.0
8.78000, 510.0
8.80000, 551.0
8.82000, 533.0
8.84000, 483.0
8.86000, 534.0
8.88000, 517.0
8.90000, 536.0
8.92000, 514.0
8.94000, 523.0
8.96000, 540.0
8.98000, 524.0
9.00000, 585.0
9.02000, 646.0
9.04000, 777.0
9.06000, 1092.0
9.08000, 1475.0
9.10000, 2252.0
9.12000, 3337.0
9.14000, 4674.0
9.16000, 6430.0
9.18000, 8274.0
9.20000, 9830.0
9.22000, 10855.0
9.24000, 11164.0
9.26000, 10556.0
9.28000, 9398.0
9.30000, 7756.0
9.32000, 5840.0
9.34000, 4280.0
9.36000, 2917.0
9.38000, 1908.0
9.40000, 1303.0
9.42000, 935.0
9.44000, 723.0
9.46000, 576.0
9.48000, 498.0
9.50000, 505.0
9.52000, 484.0
9.54000, 482.0
9.56000, 475.0
9.58000, 467.0
9.60000, 466.0
9.62000, 466.0
9.64000, 491.0
9.66000, 462.0
9.68000, 454.0
9.70000, 491.0
9.72000, 452.0
9.74000, 484.0
9.76000, 428.0
9.78000, 462.0
9.80000, 484.0
9.82000, 477.0
9.84000, 448.0
9.86000, 462.0
9.88000, 434.0
9.90000, 452.0
9.92000, 462.0
9.94000, 468.0
9.96000, 450.0
9.98000, 447.0
10.00000, 452.0
10.02000, 452.0
10.04000, 496.0
10.06000, 537.0
10.08000, 572.0
10.10000, 625.0
10.12000, 732.0
10.14000, 902.0
10.16000, 1083.0
10.18000, 1319.0
10.20000, 1533.0
10.22000, 1727.0
10.24000, 1879.0
10.26000, 1902.0
10.28000, 1794.0
10.30000, 1618.0
10.32000, 1469.0
10.34000, 1188.0
10.36000, 929.0
10.38000, 782.0
10.40000, 651.0
10.42000, 536.0
10.44000, 479.0
10.46000, 424.0
10.48000, 387.0
10.50000, 406.0
10.52000, 362.0
10.54000, 400.0
10.56000, 381.0
10.58000, 348.0
10.60000, 372.0
10.62000, 333.0
10.64000, 396.0
10.66000, 363.0
10.68000, 363.0
10.70000, 381.0
10.72000, 347.0
10.74000, 360.0
10.76000, 320.0
10.78000, 376.0
10.80000, 361.0
10.82000, 349.0
10.84000, 344.0
10.86000, 373.0
10.88000, 360.0
10.90000, 360.0
10.92000, 361.0
10.94000, 357.0
10.96000, 354.0
10.98000, 346.0
11.00000, 379.0
11.02000, 377.0
11.04000, 350.0
11.06000, 350.0
11.08000, 351.0
11.10000, 349.0
11.12000, 367.0
11.14000, 346.0
11.16000, 347.0
11.18000, 343.0
11.20000, 352.0
11.22000, 355.0
11.24000, 357.0
11.26000, 344.0
11.28000, 339.0
11.30000, 348.0
11.32000, 324.0
11.34000, 343.0
11.36000, 344.0
11.38000, 334.0
11.40000, 324.0
11.42000, 324.0
11.44000, 305.0
11.46000, 319.0
11.48000, 324.0
11.50000, 328.0
11.52000, 327.0
11.54000, 333.0
11.56000, 315.0
11.58000, 326.0
11.60000, 310.0
11.62000, 317.0
11.64000, 326.0
11.66000, 333.0
11.68000, 323.0
11.70000, 316.0
11.72000, 309.0
11.74000, 319.0
11.76000, 319.0
11.78000, 335.0
11.80000, 314.0
11.82000, 325.0
11.84000, 304.0
11.86000, 304.0
11.88000, 317.0
11.90000, 303.0
11.92000, 317.0
11.94000, 299.0
11.96000, 314.0
11.98000, 324.0
12.00000, 310.0
12.02000, 284.0
12.04000, 305.0
12.06000, 309.0
12.08000, 298.0
12.10000, 279.0
12.12000, 289.0
12.14000, 305.0
12.16000, 316.0
12.18000, 294.0
12.20000, 293.0
12.22000, 305.0
12.24000, 276.0
12.26000, 283.0
12.28000, 300.0
12.30000, 296.0
12.32000, 293.0
12.34000, 271.0
12.36000, 285.0
12.38000, 280.0
12.40000, 311.0
12.42000, 284.0
12.44000, 274.0
12.46000, 291.0
12.48000, 285.0
12.50000, 264.0
12.52000, 295.0
12.54000, 297.0
12.56000, 290.0
12.58000, 296.0
12.60000, 301.0
12.62000, 279.0
12.64000, 289.0
12.66000, 287.0
12.68000, 279.0
12.70000, 268.0
12.72000, 275.0
12.74000, 288.0
12.76000, 288.0
12.78000, 290.0
12.80000, 295.0
12.82000, 281.0
12.84000, 294.0
12.86000, 291.0
12.88000, 273.0
12.90000, 271.0
12.92000, 303.0
12.94000, 253.0
12.96000, 244.0
12.98000, 281.0
13.00000, 266.0
13.02000, 248.0
13.04000, 273.0
13.06000, 260.0
13.08000, 254.0
13.10000, 268.0
13.12000, 272.0
13.14000, 275.0
13.16000, 291.0
13.18000, 244.0
13.20000, 240.0
13.22000, 264.0
13.24000, 270.0
13.26000, 247.0
13.28000, 241.0
13.30000, 242.0
13.32000, 233.0
13.34000, 237.0
13.36000, 266.0
13.38000, 248.0
13.40000, 249.0
13.42000, 222.0
13.44000, 251.0
13.46000, 232.0
13.48000, 231.0
13.50000, 236.0
13.52000, 229.0
13.54000, 221.0
13.56000, 244.0
13.58000, 244.0
13.60000, 227.0
13.62000, 240.0
13.64000, 208.0
13.66000, 244.0
13.68000, 216.0
13.70000, 246.0
13.72000, 225.0
13.74000, 229.0
13.76000, 230.0
13.78000, 225.0
13.80000, 223.0
13.82000, 225.0
13.84000, 218.0
13.86000, 199.0
13.88000, 200.0
13.90000, 218.0
13.92000, 213.0
13.94000, 206.0
13.96000, 212.0
13.98000, 206.0
14.00000, 211.0
14.02000, 220.0
14.04000, 215.0
14.06000, 211.0
14.08000, 213.0
14.10000, 203.0
14.12000, 202.0
14.14000, 205.0
14.16000, 240.0
14.18000, 197.0
14.20000, 210.0
14.22000, 198.0
14.24000, 208.0
14.26000, 199.0
14.28000, 203.0
14.30000, 192.0
14.32000, 211.0
14.34000, 201.0
14.36000, 207.0
14.38000, 197.0
14.40000, 188.0
14.42000, 198.0
14.44000, 202.0
14.46000, 183.0
14.48000, 189.0
14.50000, 180.0
14.52000, 188.0
14.54000, 193.0
14.56000, 191.0
14.58000, 200.0
14.60000, 180.0
14.62000, 170.0
14.64000, 190.0
14.66000, 192.0
14.68000, 179.0
14.70000, 170.0
14.72000, 187.0
14.74000, 166.0
14.76000, 154.0
14.78000, 172.0
14.80000, 164.0
14.82000, 176.0
14.84000, 190.0
14.86000, 160.0
14.88000, 179.0
14.90000, 167.0
14.92000, 171.0
14.94000, 182.0
14.96000, 184.0
14.98000, 180.0
15.00000, 178.0
15.02000, 159.0
15.04000, 165.0
15.06000, 177.0
15.08000, 170.0
15.10000, 177.0
15.12000, 158.0
15.14000, 168.0
15.16000, 187.0
15.18000, 170.0
15.20000, 174.0
15.22000, 157.0
15.24000, 159.0
15.26000, 144.0
15.28000, 165.0
15.30000, 146.0
15.32000, 173.0
15.34000, 148.0
15.36000, 156.0
15.38000, 161.0
15.40000, 146.0
15.42000, 146.0
15.44000, 157.0
15.46000, 152.0
15.48000, 159.0
15.50000, 172.0
15.52000, 153.0
15.54000, 167.0
15.56000, 145.0
15.58000, 152.0
15.60000, 149.0
15.62000, 147.0
15.64000, 145.0
15.66000, 152.0
15.68000, 148.0
15.70000, 137.0
15.72000, 142.0
15.74000, 151.0
15.76000, 144.0
15.78000, 145.0
15.80000, 164.0
15.82000, 143.0
15.84000, 134.0
15.86000, 131.0
15.88000, 150.0
15.90000, 157.0
15.92000, 137.0
15.94000, 140.0
15.96000, 152.0
15.98000, 138.0
16.00000, 148.0
16.02000, 148.0
16.04000, 135.0
16.06000, 127.0
16.08000, 137.0
16.10000, 139.0
16.12000, 123.0
16.14000, 118.0
16.16000, 120.0
16.18000, 141.0
16.20000, 127.0
16.22000, 130.0
16.24000, 123.0
16.26000, 115.0
16.28000, 122.0
16.30000, 134.0
16.32000, 128.0
16.34000, 125.0
16.36000, 117.0
16.38000, 132.0
16.40000, 119.0
16.42000, 131.0
16.44000, 128.0
16.46000, 116.0
16.48000, 120.0
16.50000, 120.0
16.52000, 124.0
16.54000, 114.0
16.56000, 120.0
16.58000, 110.0
16.60000, 125.0
16.62000, 123.0
16.64000, 103.0
16.66000, 113.0
16.68000, 125.0
16.70000, 125.0
16.72000, 100.0
16.74000, 116.0
16.76000, 114.0
16.78000, 114.0
16.80000, 116.0
16.82000, 124.0
16.84000, 122.0
16.86000, 106.0
16.88000, 115.0
16.90000, 113.0
16.92000, 117.0
16.94000, 116.0
16.96000, 108.0
16.98000, 104.0
17.00000, 113.0
17.02000, 114.0
17.04000, 105.0
17.06000, 106.0
17.08000, 107.0
17.10000, 97.0
17.12000, 105.0
17.14000, 106.0
17.16000, 106.0
17.18000, 100.0
17.20000, 110.0
17.22000, 102.0
17.24000, 95.0
17.26000, 111.0
17.28000, 104.0
17.30000, 107.0
17.32000, 97.0
17.34000, 97.0
17.36000, 104.0
17.38000, 87.0
17.40000, 107.0
17.42000, 101.0
17.44000, 100.0
17.46000, 101.0
17.48000, 84.0
17.50000, 102.0
17.52000, 84.0
17.54000, 95.0
17.56000, 112.0
17.58000, 86.0
17.60000, 100.0
17.62000, 98.0
17.64000, 107.0
17.66000, 102.0
17.68000, 97.0
17.70000, 100.0
17.72000, 111.0
17.74000, 95.0
17.76000, 82.0
17.78000, 87.0
17.80000, 93.0
17.82000, 102.0
17.84000, 93.0
17.86000, 93.0
17.88000, 95.0
17.90000, 88.0
17.92000, 95.0
17.94000, 86.0
17.96000, 88.0
17.98000, 90.0
18.00000, 87.0
18.02000, 86.0
18.04000, 88.0
18.06000, 86.0
18.08000, 94.0
18.10000, 89.0
18.12000, 81.0
18.14000, 83.0
18.16000, 92.0
18.18000, 96.0
18.20000, 84.0
18.22000, 81.0
18.24000, 70.0
18.26000, 77.0
18.28000, 80.0
18.30000, 78.0
18.32000, 90.0
18.34000, 91.0
18.36000, 84.0
18.38000, 87.0
18.40000, 82.0
18.42000, 93.0
18.44000, 69.0
18.46000, 76.0
18.48000, 92.0
18.50000, 78.0
18.52000, 91.0
18.54000, 81.0
18.56000, 81.0
18.58000, 83.0
18.60000, 76.0
18.62000, 74.0
18.64000, 81.0
18.66000, 73.0
18.68000, 69.0
18.70000, 72.0
18.72000, 68.0
18.74000, 76.0
18.76000, 78.0
18.78000, 77.0
18.80000, 73.0
18.82000, 79.0
18.84000, 76.0
18.86000, 69.0
18.88000, 61.0
18.90000, 58.0
18.92000, 69.0
18.94000, 66.0
18.96000, 71.0
18.98000, 68.0
19.00000, 64.0
19.02000, 76.0
19.04000, 62.0
19.06000, 69.0
19.08000, 55.0
19.10000, 65.0
19.12000, 65.0
19.14000, 67.0
19.16000, 71.0
19.18000, 58.0
19.20000, 55.0
19.22000, 65.0
19.24000, 62.0
19.26000, 68.0
19.28000, 65.0
19.30000, 71.0
19.32000, 54.0
19.34000, 62.0
19.36000, 65.0
19.38000, 53.0
19.40000, 62.0
19.42000, 60.0
19.44000, 71.0
19.46000, 61.0
19.48000, 74.0
19.50000, 66.0
19.52000, 63.0
19.54000, 53.0
19.56000, 72.0
19.58000, 66.0
19.60000, 72.0
19.62000, 53.0
19.64000, 58.0
19.66000, 50.0
19.68000, 60.0
19.70000, 62.0
19.72000, 51.0
19.74000, 55.0
19.76000, 57.0
19.78000, 48.0
19.80000, 61.0
19.82000, 52.0
19.84000, 52.0
19.86000, 52.0
19.88000, 57.0
19.90000, 49.0
19.92000, 56.0
19.94000, 53.0
19.96000, 55.0
19.98000, 57.0
20.00000, 53.0
20.02000, 63.0
20.04000, 55.0
20.06000, 54.0
20.08000, 44.0
20.10000, 54.0
20.12000, 44.0
20.14000, 50.0
20.16000, 48.0
20.18000, 47.0
20.20000, 44.0
20.22000, 48.0
20.24000, 47.0
20.26000, 46.0
20.27000, 55.0
#ENDOFDATA   :