File: data/exports/GaSb_30kV_50pA.emsa
#FORMAT      : EMSA/MAS Spectral Data File
#VERSION     : 1.0
#TITLE       : GaSb_30kV_50pA
#DATE        : 08-MAR-2023
#TIME        : 14:39
#OWNER       :
#NPOINTS     : 2048.0
#NCOLUMNS    : 1.0
#XUNITS      : keV
#YUNITS      : counts
#DATATYPE    : XY
#XPERCHAN    : 0.01
#OFFSET      : -0.2
#SIGNALTYPE  : EDS
#CHOFFSET    : 20.0
#LIVETIME    : 120.0
#REALTIME    : 212.822
#BEAMKV      : 30.0
#MAGCAM      : 4894.0
#XTILTSTGE   : 0.0
#AZIMANGLE   : 0.0
#ELEVANGLE   : 35.0
#XPOSITION mm: -8.1703
#YPOSITION mm: 1.2743
#ZPOSITION mm: 10.0002
##OXINSTPT   : 6
##OXINSTSTROB: 32.15
##OXINSTNDET : 1
##OXINSTELEMS: 6,8,14,31,51
##OXINSTLABEL: 6, 0.277, C
##OXINSTLABEL: 8, 0.525, O
##OXINSTLABEL: 14, 1.740, Si
##OXINSTLABEL: 31, 9.252, Ga
##OXINSTLABEL: 31, 10.264, Ga
##OXINSTLABEL: 31, 1.098, Ga
##OXINSTLABEL: 31, 0.984, Ga
##OXINSTLABEL: 31, 0.957, Ga
##OXINSTLABEL: 51, 3.605, Sb
##OXINSTLABEL: 51, 3.844, Sb
##OXINSTLABEL: 51, 4.101, Sb
##OXINSTLABEL: 51, 3.437, Sb
##OXINSTLABEL: 51, 4.348, Sb
##OXINSTLABEL: 51, 4.600, Sb
##OXINSTLABEL: 51, 3.189, Sb
##OXINSTLABEL: 51, 0.429, Sb
#SPECTRUM    : Spectral Data Starts Here
-0.20000, 0.0
-0.18000, 0.0
-0.16000, 0.0
-0.14000, 0.0
-0.12000, 0.0
-0.10000, 0.0
-0.08000, 2.0
-0.06000, 18.0
-0.04000, 191.0
-0.02000, 1908.0
0.00000, 8824.0
0.02000, 7625.0
0.04000, 1400.0
0.06000, 117.0
0.08000, 119.0
0.10000, 137.0
0.12000, 189.0
0.14000, 239.0
0.16000, 262.0
0.18000, 259.0
0.20000, 326.0
0.22000, 449.0
0.24000, 902.0
0.26000, 1615.0
0.28000, 1501.0
0.30000, 643.0
0.32000, 248.0
0.34000, 265.0
0.36000, 363.0
0.38000, 630.0
0.40000, 1154.0
0.42000, 1665.0
0.44000, 1476.0
0.46000, 961.0
0.48000, 786.0
0.50000, 934.0
0.52000, 1112.0
0.54000, 837.0
0.56000, 489.0
0.58000, 360.0
0.60000, 336.0
0.62000, 343.0
0.64000, 347.0
0.66000, 397.0
0.68000, 401.0
0.70000, 441.0
0.72000, 556.0
0.74000, 583.0
0.76000, 568.0
0.78000, 556.0
0.80000, 513.0
0.82000, 536.0
0.84000, 538.0
0.86000, 528.0
0.88000, 551.0
0.90000, 576.0
0.92000, 713.0
0.94000, 908.0
0.96000, 1157.0
0.98000, 1184.0
1.00000, 1009.0
1.02000, 1032.0
1.04000, 1722.0
1.06000, 4020.0
1.08000, 8705.0
1.10000, 12273.0
1.12000, 11781.0
1.14000, 7157.0
1.16000, 3234.0
1.18000, 1363.0
1.20000, 767.0
1.22000, 659.0
1.24000, 553.0
1.26000, 494.0
1.28000, 554.0
1.30000, 547.0
1.32000, 513.0
1.34000, 539.0
1.36000, 538.0
1.38000, 578.0
1.40000, 578.0
1.42000, 572.0
1.44000, 593.0
1.46000, 605.0
1.48000, 678.0
1.50000, 636.0
1.52000, 631.0
1.54000, 648.0
1.56000, 683.0
1.58000, 676.0
1.60000, 708.0
1.62000, 712.0
1.64000, 724.0
1.66000, 779.0
1.68000, 823.0
1.70000, 907.0
1.72000, 1093.0
1.74000, 1188.0
1.76000, 1153.0
1.78000, 1038.0
1.80000, 1046.0
1.82000, 1012.0
1.84000, 1169.0
1.86000, 1210.0
1.88000, 1200.0
1.90000, 1032.0
1.92000, 957.0
1.94000, 858.0
1.96000, 907.0
1.98000, 870.0
2.00000, 918.0
2.02000, 884.0
2.04000, 949.0
2.06000, 1025.0
2.08000, 1068.0
2.10000, 1138.0
2.12000, 1098.0
2.14000, 1070.0
2.16000, 1044.0
2.18000, 1041.0
2.20000, 1034.0
2.22000, 1040.0
2.24000, 984.0
2.26000, 1027.0
2.28000, 1047.0
2.30000, 1035.0
2.32000, 1046.0
2.34000, 1067.0
2.36000, 1102.0
2.38000, 1085.0
2.40000, 1119.0
2.42000, 1089.0
2.44000, 1087.0
2.46000, 1118.0
2.48000, 1077.0
2.50000, 1059.0
2.52000, 1090.0
2.54000, 1078.0
2.56000, 1091.0
2.58000, 1139.0
2.60000, 1146.0
2.62000, 1128.0
2.64000, 1133.0
2.66000, 1120.0
2.68000, 1170.0
2.70000, 1165.0
2.72000, 1147.0
2.74000, 1153.0
2.76000, 1236.0
2.78000, 1132.0
2.80000, 1151.0
2.82000, 1140.0
2.84000, 1188.0
2.86000, 1184.0
2.88000, 1218.0
2.90000, 1169.0
2.92000, 1230.0
2.94000, 1215.0
2.96000, 1203.0
2.98000, 1208.0
3.00000, 1198.0
3.02000, 1212.0
3.04000, 1218.0
3.06000, 1182.0
3.08000, 1265.0
3.10000, 1291.0
3.12000, 1402.0
3.14000, 1695.0
3.16000, 2005.0
3.18000, 2260.0
3.20000, 2281.0
3.22000, 2196.0
3.24000, 1924.0
3.26000, 1601.0
3.28000, 1434.0
3.30000, 1272.0
3.32000, 1295.0
3.34000, 1280.0
3.36000, 1312.0
3.38000, 1474.0
3.40000, 1540.0
3.42000, 1704.0
3.44000, 1820.0
3.46000, 1986.0
3.48000, 2161.0
3.50000, 3078.0
3.52000, 5439.0
3.54000, 10151.0
3.56000, 18163.0
3.58000, 27028.0
3.60000, 33028.0
3.62000, 32935.0
3.64000, 26812.0
3.66000, 17751.0
3.68000, 9929.0
3.70000, 5000.0
3.72000, 2821.0
3.74000, 2532.0
3.76000, 3464.0
3.78000, 5673.0
3.80000, 9295.0
3.82000, 13399.0
3.84000, 16486.0
3.86000, 17425.0
3.88000, 15691.0
3.90000, 12683.0
3.92000, 9664.0
3.94000, 7465.0
3.96000, 5603.0
3.98000, 4225.0
4.00000, 3270.0
4.02000, 2880.0
4.04000, 3069.0
4.06000, 3871.0
4.08000, 5069.0
4.10000, 5541.0
4.12000, 5498.0
4.14000, 4510.0
4.16000, 3409.0
4.18000, 2254.0
4.20000, 1586.0
4.22000, 1150.0
4.24000, 1102.0
4.26000, 1145.0
4.28000, 1301.0
4.30000, 1568.0
4.32000, 1974.0
4.34000, 2288.0
4.36000, 2314.0
4.38000, 2110.0
4.40000, 1693.0
4.42000, 1309.0
4.44000, 1012.0
4.46000, 877.0
4.48000, 800.0
4.50000, 850.0
4.52000, 916.0
4.54000, 1060.0
4.56000, 1296.0
4.58000, 1391.0
4.60000, 1446.0
4.62000, 1405.0
4.64000, 1235.0
4.66000, 1069.0
4.68000, 920.0
4.70000, 835.0
4.72000, 802.0
4.74000, 709.0
4.76000, 713.0
4.78000, 686.0
4.80000, 734.0
4.82000, 660.0
4.84000, 674.0
4.86000, 670.0
4.88000, 660.0
4.90000, 700.0
4.92000, 691.0
4.94000, 690.0
4.96000, 704.0
4.98000, 653.0
5.00000, 666.0
5.02000, 681.0
5.04000, 649.0
5.06000, 654.0
5.08000, 642.0
5.10000, 701.0
5.12000, 664.0
5.14000, 698.0
5.16000, 680.0
5.18000, 664.0
5.20000, 690.0
5.22000, 658.0
5.24000, 677.0
5.26000, 688.0
5.28000, 686.0
5.30000, 669.0
5.32000, 682.0
5.34000, 662.0
5.36000, 675.0
5.38000, 677.0
5.40000, 682.0
5.42000, 669.0
5.44000, 652.0
5.46000, 679.0
5.48000, 672.0
5.50000, 675.0
5.52000, 701.0
5.54000, 674.0
5.56000, 669.0
5.58000, 682.0
5.60000, 675.0
5.62000, 698.0
5.64000, 669.0
5.66000, 656.0
5.68000, 632.0
5.70000, 669.0
5.72000, 687.0
5.74000, 670.0
5.76000, 701.0
5.78000, 671.0
5.80000, 717.0
5.82000, 682.0
5.84000, 681.0
5.86000, 680.0
5.88000, 692.0
5.90000, 696.0
5.92000, 678.0
5.94000, 676.0
5.96000, 647.0
5.98000, 663.0
6.00000, 670.0
6.02000, 661.0
6.04000, 648.0
6.06000, 656.0
6.08000, 637.0
6.10000, 669.0
6.12000, 619.0
6.14000, 663.0
6.16000, 645.0
6.18000, 655.0
6.20000, 659.0
6.22000, 629.0
6.24000, 691.0
6.26000, 637.0
6.28000, 658.0
6.30000, 647.0
6.32000, 645.0
6.34000, 659.0
6.36000, 662.0
6.38000, 686.0
6.40000, 666.0
6.42000, 666.0
6.44000, 660.0
6.46000, 646.0
6.48000, 642.0
6.50000, 644.0
6.52000, 629.0
6.54000, 640.0
6.56000, 650.0
6.58000, 648.0
6.60000, 631.0
6.62000, 631.0
6.64000, 630.0
6.66000, 634.0
6.68000, 631.0
6.70000, 604.0
6.72000, 630.0
6.74000, 633.0
6.76000, 629.0
6.78000, 641.0
6.80000, 671.0
6.82000, 659.0
6.84000, 601.0
6.86000, 640.0
6.88000, 608.0
6.90000, 617.0
6.92000, 649.0
6.94000, 588.0
6.96000, 627.0
6.98000, 673.0
7.00000, 619.0
7.02000, 623.0
7.04000, 644.0
7.06000, 641.0
7.08000, 612.0
7.10000, 614.0
7.12000, 617.0
7.14000, 604.0
7.16000, 620.0
7.18000, 630.0
7.20000, 643.0
7.22000, 613.0
7.24000, 646.0
7.26000, 601.0
7.28000, 641.0
7.30000, 625.0
7.32000, 593.0
7.34000, 605.0
7.36000, 630.0
7.38000, 611.0
7.40000, 627.0
7.42000, 619.0
7.44000, 645.0
7.46000, 677.0
7.48000, 646.0
7.50000, 676.0
7.52000, 629.0
7.54000, 622.0
7.56000, 579.0
7.58000, 598.0
7.60000, 586.0
7.62000, 596.0
7.64000, 589.0
7.66000, 604.0
7.68000, 565.0
7.70000, 599.0
7.72000, 609.0
7.74000, 594.0
7.76000, 613.0
7.78000, 612.0
7.80000, 599.0
7.82000, 571.0
7.84000, 585.0
7.86000, 583.0
7.88000, 573.0
7.90000, 563.0
7.92000, 537.0
7.94000, 566.0
7.96000, 580.0
7.98000, 593.0
8.00000, 578.0
8.02000, 600.0
8.04000, 554.0
8.06000, 568.0
8.08000, 558.0
8.10000, 535.0
8.12000, 573.0
8.14000, 564.0
8.16000, 559.0
8.18000, 523.0
8.20000, 543.0
8.22000, 553.0
8.24000, 545.0
8.26000, 553.0
8.28000, 563.0
8.30000, 558.0
8.32000, 513.0
8.34000, 529.0
8.36000, 563.0
8.38000, 561.0
8.40000, 527.0
8.42000, 532.0
8.44000, 523.0
8.46000, 521.0
8.48000, 530.0
8.50000, 521.0
8.52000, 541.0
8.54000, 543.0
8.56000, 546.0
8.58000, 534.0
8.60000, 534.0
8.62000, 525.0
8.64000, 512.0
8.66000, 547.0
8.68000, 513.0
8.70000, 554.0
8.72000, 521.0
8.74000, 512.0
8.76000, 509.0
8.78000, 542.0
8.80000, 547.0
8.82000, 525.0
8.84000, 503.0
8.86000, 534.0
8.88000, 511.0
8.90000, 536.0
8.92000, 539.0
8.94000, 535.0
8.96000, 539.0
8.98000, 534.0
9.00000, 547.0
9.02000, 563.0
9.04000, 656.0
9.06000, 837.0
9.08000, 1177.0
9.10000, 1830.0
9.12000, 2801.0
9.14000, 4322.0
9.16000, 6203.0
9.18000, 8166.0
9.20000, 10125.0
9.22000, 11449.0
9.24000, 11879.0
9.26000, 11345.0
9.28000, 9946.0
9.30000, 7915.0
9.32000, 6021.0
9.34000, 3992.0
9.36000, 2630.0
9.38000, 1670.0
9.40000, 1112.0
9.42000, 758.0
9.44000, 599.0
9.46000, 518.0
9.48000, 506.0
9.50000, 475.0
9.52000, 481.0
9.54000, 463.0
9.56000, 474.0
9.58000, 446.0
9.60000, 483.0
9.62000, 491.0
9.64000, 442.0
9.66000, 431.0
9.68000, 475.0
9.70000, 445.0
9.72000, 454.0
9.74000, 473.0
9.76000, 442.0
9.78000, 436.0
9.80000, 442.0
9.82000, 455.0
9.84000, 466.0
9.86000, 447.0
9.88000, 440.0
9.90000, 452.0
9.92000, 447.0
9.94000, 474.0
9.96000, 457.0
9.98000, 453.0
10.00000, 499.0
10.02000, 467.0
10.04000, 489.0
10.06000, 476.0
10.08000, 531.0
10.10000, 598.0
10.12000, 670.0
10.14000, 795.0
10.16000, 1060.0
10.18000, 1279.0
10.20000, 1520.0
10.22000, 1817.0
10.24000, 1988.0
10.26000, 1946.0
10.28000, 1949.0
10.30000, 1712.0
10.32000, 1536.0
10.34000, 1166.0
10.36000, 924.0
10.38000, 757.0
10.40000, 590.0
10.42000, 495.0
10.44000, 475.0
10.46000, 428.0
10.48000, 400.0
10.50000, 390.0
10.52000, 389.0
10.54000, 403.0
10.56000, 390.0
10.58000, 395.0
10.60000, 367.0
10.62000, 360.0
10.64000, 371.0
10.66000, 361.0
10.68000, 369.0
10.70000, 366.0
10.72000, 362.0
10.74000, 361.0
10.76000, 358.0
10.78000, 342.0
10.80000, 372.0
10.82000, 341.0
10.84000, 363.0
10.86000, 365.0
10.88000, 365.0
10.90000, 372.0
10.92000, 342.0
10.94000, 335.0
10.96000, 345.0
10.98000, 372.0
11.00000, 353.0
11.02000, 364.0
11.04000, 372.0
11.06000, 345.0
11.08000, 359.0
11.10000, 320.0
11.12000, 327.0
11.14000, 360.0
11.16000, 348.0
11.18000, 340.0
11.20000, 357.0
11.22000, 348.0
11.24000, 332.0
11.26000, 342.0
11.28000, 322.0
11.30000, 367.0
11.32000, 326.0
11.34000, 346.0
11.36000, 328.0
11.38000, 352.0
11.40000, 340.0
11.42000, 341.0
11.44000, 322.0
11.46000, 333.0
11.48000, 334.0
11.50000, 321.0
11.52000, 332.0
11.54000, 341.0
11.56000, 318.0
11.58000, 323.0
11.60000, 325.0
11.62000, 309.0
11.64000, 319.0
11.66000, 324.0
11.68000, 326.0
11.70000, 310.0
11.72000, 315.0
11.74000, 284.0
11.76000, 314.0
11.78000, 310.0
11.80000, 319.0
11.82000, 323.0
11.84000, 313.0
11.86000, 321.0
11.88000, 312.0
11.90000, 316.0
11.92000, 293.0
11.94000, 285.0
11.96000, 304.0
11.98000, 301.0
12.00000, 306.0
12.02000, 299.0
12.04000, 318.0
12.06000, 309.0
12.08000, 283.0
12.10000, 297.0
12.12000, 287.0
12.14000, 279.0
12.16000, 304.0
12.18000, 317.0
12.20000, 294.0
12.22000, 299.0
12.24000, 276.0
12.26000, 299.0
12.28000, 277.0
12.30000, 306.0
12.32000, 307.0
12.34000, 292.0
12.36000, 291.0
12.38000, 308.0
12.40000, 300.0
12.42000, 286.0
12.44000, 264.0
12.46000, 277.0
12.48000, 278.0
12.50000, 275.0
12.52000, 279.0
12.54000, 259.0
12.56000, 287.0
12.58000, 277.0
12.60000, 274.0
12.62000, 275.0
12.64000, 284.0
12.66000, 254.0
12.68000, 287.0
12.70000, 277.0
12.72000, 272.0
12.74000, 295.0
12.76000, 299.0
12.78000, 293.0
12.80000, 272.0
12.82000, 278.0
12.84000, 310.0
12.86000, 284.0
12.88000, 287.0
12.90000, 289.0
12.92000, 266.0
12.94000, 280.0
12.96000, 289.0
12.98000, 261.0
13.00000, 255.0
13.02000, 273.0
13.04000, 258.0
13.06000, 290.0
13.08000, 276.0
13.10000, 267.0
13.12000, 266.0
13.14000, 267.0
13.16000, 255.0
13.18000, 254.0
13.20000, 257.0
13.22000, 251.0
13.24000, 248.0
13.26000, 256.0
13.28000, 250.0
13.30000, 242.0
13.32000, 251.0
13.34000, 238.0
13.36000, 229.0
13.38000, 255.0
13.40000, 230.0
13.42000, 231.0
13.44000, 249.0
13.46000, 243.0
13.48000, 245.0
13.50000, 243.0
13.52000, 256.0
13.54000, 232.0
13.56000, 228.0
13.58000, 229.0
13.60000, 225.0
13.62000, 231.0
13.64000, 236.0
13.66000, 220.0
13.68000, 219.0
13.70000, 237.0
13.72000, 210.0
13.74000, 216.0
13.76000, 241.0
13.78000, 241.0
13.80000, 224.0
13.82000, 219.0
13.84000, 239.0
13.86000, 208.0
13.88000, 207.0
13.90000, 223.0
13.92000, 236.0
13.94000, 240.0
13.96000, 220.0
13.98000, 210.0
14.00000, 219.0
14.02000, 201.0
14.04000, 213.0
14.06000, 207.0
14.08000, 221.0
14.10000, 205.0
14.12000, 207.0
14.14000, 206.0
14.16000, 208.0
14.18000, 191.0
14.20000, 200.0
14.22000, 186.0
14.24000, 225.0
14.26000, 208.0
14.28000, 205.0
14.30000, 187.0
14.32000, 202.0
14.34000, 192.0
14.36000, 189.0
14.38000, 186.0
14.40000, 182.0
14.42000, 206.0
14.44000, 186.0
14.46000, 190.0
14.48000, 186.0
14.50000, 178.0
14.52000, 181.0
14.54000, 191.0
14.56000, 177.0
14.58000, 199.0
14.60000, 178.0
14.62000, 194.0
14.64000, 185.0
14.66000, 176.0
14.68000, 190.0
14.70000, 183.0
14.72000, 173.0
14.74000, 173.0
14.76000, 191.0
14.78000, 160.0
14.80000, 189.0
14.82000, 170.0
14.84000, 182.0
14.86000, 162.0
14.88000, 188.0
14.90000, 176.0
14.92000, 183.0
14.94000, 178.0
14.96000, 173.0
14.98000, 184.0
15.00000, 154.0
15.02000, 177.0
15.04000, 170.0
15.06000, 165.0
15.08000, 180.0
15.10000, 187.0
15.12000, 157.0
15.14000, 170.0
15.16000, 169.0
15.18000, 168.0
15.20000, 167.0
15.22000, 173.0
15.24000, 174.0
15.26000, 169.0
15.28000, 166.0
15.30000, 151.0
15.32000, 162.0
15.34000, 147.0
15.36000, 170.0
15.38000, 163.0
15.40000, 163.0
15.42000, 152.0
15.44000, 147.0
15.46000, 159.0
15.48000, 144.0
15.50000, 158.0
15.52000, 146.0
15.54000, 162.0
15.56000, 153.0
15.58000, 139.0
15.60000, 147.0
15.62000, 144.0
15.64000, 146.0
15.66000, 161.0
15.68000, 134.0
15.70000, 147.0
15.72000, 133.0
15.74000, 142.0
15.76000, 161.0
15.78000, 144.0
15.80000, 142.0
15.82000, 151.0
15.84000, 138.0
15.86000, 142.0
15.88000, 139.0
15.90000, 139.0
15.92000, 135.0
15.94000, 140.0
15.96000, 141.0
15.98000, 137.0
16.00000, 138.0
16.02000, 140.0
16.04000, 132.0
16.06000, 138.0
16.08000, 138.0
16.10000, 147.0
16.12000, 141.0
16.14000, 124.0
16.16000, 136.0
16.18000, 136.0
16.20000, 141.0
16.22000, 119.0
16.24000, 126.0
16.26000, 125.0
16.28000, 119.0
16.30000, 130.0
16.32000, 134.0
16.34000, 136.0
16.36000, 129.0
16.38000, 127.0
16.40000, 135.0
16.42000, 120.0
16.44000, 128.0
16.46000, 124.0
16.48000, 118.0
16.50000, 128.0
16.52000, 134.0
16.54000, 125.0
16.56000, 125.0
16.58000, 134.0
16.60000, 126.0
16.62000, 119.0
16.64000, 118.0
16.66000, 127.0
16.68000, 123.0
16.70000, 115.0
16.72000, 123.0
16.74000, 107.0
16.76000, 113.0
16.78000, 124.0
16.80000, 110.0
16.82000, 112.0
16.84000, 108.0
16.86000, 108.0
16.88000, 116.0
16.90000, 118.0
16.92000, 119.0
16.94000, 111.0
16.96000, 103.0
16.98000, 109.0
17.00000, 105.0
17.02000, 123.0
17.04000, 109.0
17.06000, 109.0
17.08000, 100.0
17.10000, 102.0
17.12000, 106.0
17.14000, 98.0
17.16000, 105.0
17.18000, 109.0
17.20000, 101.0
17.22000, 97.0
17.24000, 103.0
17.26000, 104.0
17.28000, 112.0
17.30000, 121.0
17.32000, 114.0
17.34000, 102.0
17.36000, 110.0
17.38000, 103.0
17.40000, 98.0
17.42000, 93.0
17.44000, 101.0
17.46000, 95.0
17.48000, 86.0
17.50000, 93.0
17.52000, 107.0
17.54000, 88.0
17.56000, 96.0
17.58000, 100.0
17.60000, 96.0
17.62000, 102.0
17.64000, 91.0
17.66000, 82.0
17.68000, 107.0
17.70000, 88.0
17.72000, 94.0
17.74000, 84.0
17.76000, 90.0
17.78000, 93.0
17.80000, 88.0
17.82000, 79.0
17.84000, 106.0
17.86000, 93.0
17.88000, 85.0
17.90000, 92.0
17.92000, 93.0
17.94000, 89.0
17.96000, 77.0
17.98000, 85.0
18.00000, 98.0
18.02000, 90.0
18.04000, 94.0
18.06000, 96.0
18.08000, 84.0
18.10000, 76.0
18.12000, 81.0
18.14000, 87.0
18.16000, 93.0
18.18000, 88.0
18.20000, 97.0
18.22000, 80.0
18.24000, 89.0
18.26000, 81.0
18.28000, 83.0
18.30000, 85.0
18.32000, 83.0
18.34000, 80.0
18.36000, 94.0
18.38000, 83.0
18.40000, 86.0
18.42000, 91.0
18.44000, 91.0
18.46000, 75.0
18.48000, 83.0
18.50000, 91.0
18.52000, 85.0
18.54000, 83.0
18.56000, 80.0
18.58000, 69.0
18.60000, 76.0
18.62000, 76.0
18.64000, 77.0
18.66000, 72.0
18.68000, 69.0
18.70000, 74.0
18.72000, 71.0
18.74000, 75.0
18.76000, 79.0
18.78000, 63.0
18.80000, 69.0
18.82000, 75.0
18.84000, 79.0
18.86000, 74.0
18.88000, 69.0
18.90000, 75.0
18.92000, 65.0
18.94000, 75.0
18.96000, 77.0
18.98000, 71.0
19.00000, 66.0
19.02000, 66.0
19.04000, 60.0
19.06000, 66.0
19.08000, 66.0
19.10000, 63.0
19.12000, 66.0
19.14000, 69.0
19.16000, 70.0
19.18000, 68.0
19.20000, 58.0
19.22000, 62.0
19.24000, 68.0
19.26000, 63.0
19.28000, 65.0
19.30000, 64.0
19.32000, 60.0
19.34000, 73.0
19.36000, 58.0
19.38000, 65.0
19.40000, 59.0
19.42000, 61.0
19.44000, 64.0
19.46000, 61.0
19.48000, 56.0
19.50000, 62.0
19.52000, 56.0
19.54000, 56.0
19.56000, 61.0
19.58000, 48.0
19.60000, 68.0
19.62000, 61.0
19.64000, 54.0
19.66000, 60.0
19.68000, 55.0
19.70000, 56.0
19.72000, 60.0
19.74000, 51.0
19.76000, 60.0
19.78000, 58.0
19.80000, 66.0
19.82000, 47.0
19.84000, 54.0
19.86000, 52.0
19.88000, 51.0
19.90000, 58.0
19.92000, 61.0
19.94000, 49.0
19.96000, 58.0
19.98000, 57.0
20.00000, 50.0
20.02000, 53.0
20.04000, 55.0
20.06000, 51.0
20.08000, 53.0
20.10000, 49.0
20.12000, 43.0
20.14000, 50.0
20.16000, 54.0
20.18000, 44.0
20.20000, 49.0
20.22000, 49.0
20.24000, 49.0
20.26000, 42.0
20.27000, 49.0
#ENDOFDATA   :