File: data/exports/GaSb_30kV_50pA_processTime1.emsa
#FORMAT      : EMSA/MAS Spectral Data File
#VERSION     : 1.0
#TITLE       : GaSb_30kV_50pA_processTime1
#DATE        : 08-MAR-2023
#TIME        : 15:06
#OWNER       :
#NPOINTS     : 2048.0
#NCOLUMNS    : 1.0
#XUNITS      : keV
#YUNITS      : counts
#DATATYPE    : XY
#XPERCHAN    : 0.01
#OFFSET      : -0.2
#SIGNALTYPE  : EDS
#CHOFFSET    : 20.0
#LIVETIME    : 120.0
#REALTIME    : 125.45
#BEAMKV      : 30.0
#MAGCAM      : 4894.0
#XTILTSTGE   : 0.0
#AZIMANGLE   : 0.0
#ELEVANGLE   : 35.0
#XPOSITION mm: -8.1703
#YPOSITION mm: 1.2743
#ZPOSITION mm: 10.0002
##OXINSTPT   : 1
##OXINSTSTROB: 96.59
##OXINSTNDET : 1
##OXINSTELEMS: 25,26,27,28,29,13,6,8
##OXINSTLABEL: 25, 5.899, Mn
##OXINSTLABEL: 25, 6.490, Mn
##OXINSTLABEL: 25, 0.636, Mn
##OXINSTLABEL: 25, 0.556, Mn
##OXINSTLABEL: 26, 6.404, Fe
##OXINSTLABEL: 26, 7.058, Fe
##OXINSTLABEL: 26, 0.703, Fe
##OXINSTLABEL: 26, 0.615, Fe
##OXINSTLABEL: 27, 6.930, Co
##OXINSTLABEL: 27, 7.650, Co
##OXINSTLABEL: 27, 0.776, Co
##OXINSTLABEL: 27, 0.694, Co
##OXINSTLABEL: 27, 0.678, Co
##OXINSTLABEL: 28, 7.478, Ni
##OXINSTLABEL: 28, 8.265, Ni
##OXINSTLABEL: 28, 0.851, Ni
##OXINSTLABEL: 28, 0.762, Ni
##OXINSTLABEL: 28, 0.743, Ni
##OXINSTLABEL: 29, 8.048, Cu
##OXINSTLABEL: 29, 8.905, Cu
##OXINSTLABEL: 29, 0.930, Cu
##OXINSTLABEL: 29, 0.832, Cu
##OXINSTLABEL: 29, 0.811, Cu
##OXINSTLABEL: 13, 1.487, Al
##OXINSTLABEL: 6, 0.277, C
##OXINSTLABEL: 8, 0.525, O
#SPECTRUM    : Spectral Data Starts Here
-0.20000, 0.0
-0.18000, 0.0
-0.16000, 0.0
-0.14000, 0.0
-0.12000, 0.0
-0.10000, 1.0
-0.08000, 6.0
-0.06000, 46.0
-0.04000, 201.0
-0.02000, 580.0
0.00000, 1348.0
0.02000, 2528.0
0.04000, 3556.0
0.06000, 3869.0
0.08000, 3406.0
0.10000, 2321.0
0.12000, 1217.0
0.14000, 658.0
0.16000, 394.0
0.18000, 345.0
0.20000, 426.0
0.22000, 627.0
0.24000, 839.0
0.26000, 976.0
0.28000, 1049.0
0.30000, 912.0
0.32000, 753.0
0.34000, 662.0
0.36000, 700.0
0.38000, 816.0
0.40000, 1022.0
0.42000, 1195.0
0.44000, 1167.0
0.46000, 1132.0
0.48000, 1039.0
0.50000, 956.0
0.52000, 813.0
0.54000, 721.0
0.56000, 581.0
0.58000, 485.0
0.60000, 430.0
0.62000, 383.0
0.64000, 391.0
0.66000, 393.0
0.68000, 415.0
0.70000, 432.0
0.72000, 469.0
0.74000, 542.0
0.76000, 544.0
0.78000, 560.0
0.80000, 550.0
0.82000, 575.0
0.84000, 568.0
0.86000, 574.0
0.88000, 617.0
0.90000, 726.0
0.92000, 782.0
0.94000, 874.0
0.96000, 1033.0
0.98000, 1230.0
1.00000, 1580.0
1.02000, 2313.0
1.04000, 3686.0
1.06000, 5378.0
1.08000, 7013.0
1.10000, 7976.0
1.12000, 7848.0
1.14000, 6586.0
1.16000, 4783.0
1.18000, 3077.0
1.20000, 1835.0
1.22000, 1168.0
1.24000, 761.0
1.26000, 605.0
1.28000, 550.0
1.30000, 581.0
1.32000, 520.0
1.34000, 539.0
1.36000, 564.0
1.38000, 583.0
1.40000, 579.0
1.42000, 584.0
1.44000, 646.0
1.46000, 613.0
1.48000, 642.0
1.50000, 665.0
1.52000, 678.0
1.54000, 674.0
1.56000, 670.0
1.58000, 688.0
1.60000, 705.0
1.62000, 714.0
1.64000, 762.0
1.66000, 779.0
1.68000, 870.0
1.70000, 931.0
1.72000, 1005.0
1.74000, 1058.0
1.76000, 1050.0
1.78000, 1111.0
1.80000, 1080.0
1.82000, 1118.0
1.84000, 1102.0
1.86000, 1097.0
1.88000, 1109.0
1.90000, 1020.0
1.92000, 1010.0
1.94000, 933.0
1.96000, 895.0
1.98000, 901.0
2.00000, 925.0
2.02000, 955.0
2.04000, 946.0
2.06000, 999.0
2.08000, 1022.0
2.10000, 1065.0
2.12000, 1071.0
2.14000, 1042.0
2.16000, 1074.0
2.18000, 1035.0
2.20000, 1052.0
2.22000, 1037.0
2.24000, 987.0
2.26000, 1024.0
2.28000, 1059.0
2.30000, 1081.0
2.32000, 1073.0
2.34000, 1128.0
2.36000, 1067.0
2.38000, 1094.0
2.40000, 1081.0
2.42000, 1053.0
2.44000, 1116.0
2.46000, 1074.0
2.48000, 1078.0
2.50000, 1137.0
2.52000, 1064.0
2.54000, 1147.0
2.56000, 1126.0
2.58000, 1142.0
2.60000, 1141.0
2.62000, 1154.0
2.64000, 1121.0
2.66000, 1122.0
2.68000, 1133.0
2.70000, 1159.0
2.72000, 1163.0
2.74000, 1149.0
2.76000, 1220.0
2.78000, 1161.0
2.80000, 1163.0
2.82000, 1187.0
2.84000, 1157.0
2.86000, 1162.0
2.88000, 1224.0
2.90000, 1186.0
2.92000, 1180.0
2.94000, 1214.0
2.96000, 1223.0
2.98000, 1217.0
3.00000, 1193.0
3.02000, 1202.0
3.04000, 1229.0
3.06000, 1281.0
3.08000, 1280.0
3.10000, 1448.0
3.12000, 1589.0
3.14000, 1772.0
3.16000, 1925.0
3.18000, 2092.0
3.20000, 2140.0
3.22000, 2008.0
3.24000, 1818.0
3.26000, 1690.0
3.28000, 1542.0
3.30000, 1375.0
3.32000, 1360.0
3.34000, 1384.0
3.36000, 1442.0
3.38000, 1532.0
3.40000, 1578.0
3.42000, 1788.0
3.44000, 2031.0
3.46000, 2563.0
3.48000, 3792.0
3.50000, 5721.0
3.52000, 8990.0
3.54000, 13088.0
3.56000, 18039.0
3.58000, 22381.0
3.60000, 25340.0
3.62000, 25020.0
3.64000, 22426.0
3.66000, 17994.0
3.68000, 13039.0
3.70000, 8937.0
3.72000, 6305.0
3.74000, 5270.0
3.76000, 5852.0
3.78000, 7473.0
3.80000, 9584.0
3.82000, 11849.0
3.84000, 13647.0
3.86000, 14009.0
3.88000, 13517.0
3.90000, 12154.0
3.92000, 10222.0
3.94000, 8140.0
3.96000, 6393.0
3.98000, 5063.0
4.00000, 4245.0
4.02000, 3750.0
4.04000, 3822.0
4.06000, 4199.0
4.08000, 4558.0
4.10000, 4640.0
4.12000, 4501.0
4.14000, 4020.0
4.16000, 3377.0
4.18000, 2677.0
4.20000, 2011.0
4.22000, 1633.0
4.24000, 1386.0
4.26000, 1461.0
4.28000, 1495.0
4.30000, 1662.0
4.32000, 1831.0
4.34000, 1960.0
4.36000, 1974.0
4.38000, 1903.0
4.40000, 1686.0
4.42000, 1372.0
4.44000, 1201.0
4.46000, 1011.0
4.48000, 931.0
4.50000, 979.0
4.52000, 1016.0
4.54000, 1128.0
4.56000, 1200.0
4.58000, 1239.0
4.60000, 1293.0
4.62000, 1207.0
4.64000, 1180.0
4.66000, 1041.0
4.68000, 958.0
4.70000, 907.0
4.72000, 815.0
4.74000, 740.0
4.76000, 689.0
4.78000, 697.0
4.80000, 704.0
4.82000, 662.0
4.84000, 665.0
4.86000, 680.0
4.88000, 655.0
4.90000, 671.0
4.92000, 706.0
4.94000, 690.0
4.96000, 684.0
4.98000, 664.0
5.00000, 698.0
5.02000, 661.0
5.04000, 667.0
5.06000, 653.0
5.08000, 684.0
5.10000, 695.0
5.12000, 660.0
5.14000, 680.0
5.16000, 657.0
5.18000, 672.0
5.20000, 683.0
5.22000, 691.0
5.24000, 646.0
5.26000, 677.0
5.28000, 659.0
5.30000, 698.0
5.32000, 698.0
5.34000, 678.0
5.36000, 675.0
5.38000, 686.0
5.40000, 669.0
5.42000, 692.0
5.44000, 701.0
5.46000, 738.0
5.48000, 706.0
5.50000, 681.0
5.52000, 671.0
5.54000, 671.0
5.56000, 664.0
5.58000, 701.0
5.60000, 692.0
5.62000, 657.0
5.64000, 689.0
5.66000, 672.0
5.68000, 665.0
5.70000, 668.0
5.72000, 724.0
5.74000, 675.0
5.76000, 633.0
5.78000, 649.0
5.80000, 693.0
5.82000, 671.0
5.84000, 675.0
5.86000, 655.0
5.88000, 689.0
5.90000, 673.0
5.92000, 698.0
5.94000, 673.0
5.96000, 634.0
5.98000, 677.0
6.00000, 665.0
6.02000, 645.0
6.04000, 664.0
6.06000, 679.0
6.08000, 682.0
6.10000, 693.0
6.12000, 646.0
6.14000, 644.0
6.16000, 639.0
6.18000, 659.0
6.20000, 667.0
6.22000, 661.0
6.24000, 682.0
6.26000, 644.0
6.28000, 640.0
6.30000, 667.0
6.32000, 652.0
6.34000, 656.0
6.36000, 646.0
6.38000, 664.0
6.40000, 675.0
6.42000, 647.0
6.44000, 660.0
6.46000, 639.0
6.48000, 686.0
6.50000, 658.0
6.52000, 655.0
6.54000, 654.0
6.56000, 626.0
6.58000, 671.0
6.60000, 608.0
6.62000, 624.0
6.64000, 627.0
6.66000, 628.0
6.68000, 619.0
6.70000, 610.0
6.72000, 615.0
6.74000, 625.0
6.76000, 615.0
6.78000, 602.0
6.80000, 621.0
6.82000, 642.0
6.84000, 635.0
6.86000, 621.0
6.88000, 634.0
6.90000, 626.0
6.92000, 604.0
6.94000, 629.0
6.96000, 602.0
6.98000, 631.0
7.00000, 616.0
7.02000, 607.0
7.04000, 629.0
7.06000, 594.0
7.08000, 614.0
7.10000, 597.0
7.12000, 654.0
7.14000, 595.0
7.16000, 615.0
7.18000, 610.0
7.20000, 634.0
7.22000, 656.0
7.24000, 643.0
7.26000, 625.0
7.28000, 614.0
7.30000, 627.0
7.32000, 630.0
7.34000, 627.0
7.36000, 614.0
7.38000, 588.0
7.40000, 624.0
7.42000, 627.0
7.44000, 645.0
7.46000, 621.0
7.48000, 632.0
7.50000, 634.0
7.52000, 641.0
7.54000, 609.0
7.56000, 639.0
7.58000, 579.0
7.60000, 603.0
7.62000, 612.0
7.64000, 616.0
7.66000, 599.0
7.68000, 574.0
7.70000, 586.0
7.72000, 614.0
7.74000, 576.0
7.76000, 565.0
7.78000, 547.0
7.80000, 600.0
7.82000, 619.0
7.84000, 563.0
7.86000, 605.0
7.88000, 576.0
7.90000, 568.0
7.92000, 559.0
7.94000, 578.0
7.96000, 594.0
7.98000, 562.0
8.00000, 571.0
8.02000, 599.0
8.04000, 586.0
8.06000, 582.0
8.08000, 579.0
8.10000, 553.0
8.12000, 570.0
8.14000, 548.0
8.16000, 576.0
8.18000, 547.0
8.20000, 559.0
8.22000, 569.0
8.24000, 535.0
8.26000, 498.0
8.28000, 540.0
8.30000, 548.0
8.32000, 551.0
8.34000, 558.0
8.36000, 568.0
8.38000, 561.0
8.40000, 530.0
8.42000, 530.0
8.44000, 522.0
8.46000, 513.0
8.48000, 555.0
8.50000, 560.0
8.52000, 520.0
8.54000, 525.0
8.56000, 519.0
8.58000, 539.0
8.60000, 506.0
8.62000, 555.0
8.64000, 521.0
8.66000, 489.0
8.68000, 496.0
8.70000, 518.0
8.72000, 519.0
8.74000, 527.0
8.76000, 493.0
8.78000, 512.0
8.80000, 525.0
8.82000, 525.0
8.84000, 522.0
8.86000, 502.0
8.88000, 541.0
8.90000, 518.0
8.92000, 511.0
8.94000, 519.0
8.96000, 538.0
8.98000, 562.0
9.00000, 592.0
9.02000, 679.0
9.04000, 891.0
9.06000, 1175.0
9.08000, 1638.0
9.10000, 2360.0
9.12000, 3419.0
9.14000, 4770.0
9.16000, 6230.0
9.18000, 7713.0
9.20000, 9212.0
9.22000, 10061.0
9.24000, 10327.0
9.26000, 10094.0
9.28000, 9138.0
9.30000, 7845.0
9.32000, 6333.0
9.34000, 4628.0
9.36000, 3408.0
9.38000, 2384.0
9.40000, 1659.0
9.42000, 1088.0
9.44000, 780.0
9.46000, 654.0
9.48000, 568.0
9.50000, 513.0
9.52000, 500.0
9.54000, 457.0
9.56000, 476.0
9.58000, 464.0
9.60000, 487.0
9.62000, 436.0
9.64000, 471.0
9.66000, 466.0
9.68000, 470.0
9.70000, 451.0
9.72000, 435.0
9.74000, 483.0
9.76000, 475.0
9.78000, 432.0
9.80000, 467.0
9.82000, 462.0
9.84000, 459.0
9.86000, 432.0
9.88000, 503.0
9.90000, 472.0
9.92000, 422.0
9.94000, 466.0
9.96000, 468.0
9.98000, 446.0
10.00000, 464.0
10.02000, 505.0
10.04000, 520.0
10.06000, 538.0
10.08000, 565.0
10.10000, 637.0
10.12000, 746.0
10.14000, 882.0
10.16000, 1110.0
10.18000, 1275.0
10.20000, 1412.0
10.22000, 1707.0
10.24000, 1714.0
10.26000, 1792.0
10.28000, 1762.0
10.30000, 1701.0
10.32000, 1444.0
10.34000, 1252.0
10.36000, 1041.0
10.38000, 868.0
10.40000, 700.0
10.42000, 601.0
10.44000, 512.0
10.46000, 466.0
10.48000, 403.0
10.50000, 392.0
10.52000, 392.0
10.54000, 398.0
10.56000, 351.0
10.58000, 354.0
10.60000, 390.0
10.62000, 397.0
10.64000, 350.0
10.66000, 356.0
10.68000, 369.0
10.70000, 377.0
10.72000, 363.0
10.74000, 347.0
10.76000, 344.0
10.78000, 354.0
10.80000, 353.0
10.82000, 372.0
10.84000, 357.0
10.86000, 353.0
10.88000, 375.0
10.90000, 352.0
10.92000, 368.0
10.94000, 339.0
10.96000, 367.0
10.98000, 344.0
11.00000, 358.0
11.02000, 350.0
11.04000, 346.0
11.06000, 341.0
11.08000, 347.0
11.10000, 341.0
11.12000, 345.0
11.14000, 343.0
11.16000, 332.0
11.18000, 358.0
11.20000, 363.0
11.22000, 335.0
11.24000, 360.0
11.26000, 342.0
11.28000, 353.0
11.30000, 329.0
11.32000, 331.0
11.34000, 348.0
11.36000, 326.0
11.38000, 360.0
11.40000, 348.0
11.42000, 326.0
11.44000, 331.0
11.46000, 335.0
11.48000, 329.0
11.50000, 340.0
11.52000, 343.0
11.54000, 344.0
11.56000, 321.0
11.58000, 321.0
11.60000, 301.0
11.62000, 317.0
11.64000, 311.0
11.66000, 325.0
11.68000, 321.0
11.70000, 306.0
11.72000, 310.0
11.74000, 296.0
11.76000, 315.0
11.78000, 328.0
11.80000, 299.0
11.82000, 335.0
11.84000, 317.0
11.86000, 318.0
11.88000, 318.0
11.90000, 337.0
11.92000, 319.0
11.94000, 309.0
11.96000, 297.0
11.98000, 297.0
12.00000, 301.0
12.02000, 309.0
12.04000, 290.0
12.06000, 283.0
12.08000, 279.0
12.10000, 279.0
12.12000, 292.0
12.14000, 283.0
12.16000, 290.0
12.18000, 271.0
12.20000, 300.0
12.22000, 285.0
12.24000, 323.0
12.26000, 304.0
12.28000, 291.0
12.30000, 284.0
12.32000, 286.0
12.34000, 282.0
12.36000, 284.0
12.38000, 292.0
12.40000, 297.0
12.42000, 297.0
12.44000, 298.0
12.46000, 279.0
12.48000, 293.0
12.50000, 289.0
12.52000, 286.0
12.54000, 270.0
12.56000, 282.0
12.58000, 270.0
12.60000, 271.0
12.62000, 281.0
12.64000, 282.0
12.66000, 275.0
12.68000, 271.0
12.70000, 283.0
12.72000, 292.0
12.74000, 265.0
12.76000, 279.0
12.78000, 285.0
12.80000, 287.0
12.82000, 294.0
12.84000, 278.0
12.86000, 283.0
12.88000, 294.0
12.90000, 293.0
12.92000, 280.0
12.94000, 272.0
12.96000, 287.0
12.98000, 258.0
13.00000, 265.0
13.02000, 282.0
13.04000, 263.0
13.06000, 271.0
13.08000, 254.0
13.10000, 259.0
13.12000, 259.0
13.14000, 268.0
13.16000, 263.0
13.18000, 267.0
13.20000, 234.0
13.22000, 238.0
13.24000, 250.0
13.26000, 261.0
13.28000, 228.0
13.30000, 228.0
13.32000, 260.0
13.34000, 248.0
13.36000, 242.0
13.38000, 251.0
13.40000, 271.0
13.42000, 254.0
13.44000, 251.0
13.46000, 230.0
13.48000, 227.0
13.50000, 249.0
13.52000, 220.0
13.54000, 247.0
13.56000, 237.0
13.58000, 231.0
13.60000, 231.0
13.62000, 216.0
13.64000, 233.0
13.66000, 244.0
13.68000, 235.0
13.70000, 223.0
13.72000, 238.0
13.74000, 233.0
13.76000, 212.0
13.78000, 222.0
13.80000, 241.0
13.82000, 229.0
13.84000, 228.0
13.86000, 225.0
13.88000, 235.0
13.90000, 202.0
13.92000, 225.0
13.94000, 224.0
13.96000, 218.0
13.98000, 211.0
14.00000, 202.0
14.02000, 208.0
14.04000, 207.0
14.06000, 202.0
14.08000, 203.0
14.10000, 205.0
14.12000, 206.0
14.14000, 200.0
14.16000, 215.0
14.18000, 212.0
14.20000, 206.0
14.22000, 167.0
14.24000, 206.0
14.26000, 200.0
14.28000, 201.0
14.30000, 185.0
14.32000, 182.0
14.34000, 196.0
14.36000, 199.0
14.38000, 188.0
14.40000, 207.0
14.42000, 194.0
14.44000, 185.0
14.46000, 191.0
14.48000, 204.0
14.50000, 184.0
14.52000, 193.0
14.54000, 186.0
14.56000, 210.0
14.58000, 184.0
14.60000, 197.0
14.62000, 185.0
14.64000, 162.0
14.66000, 164.0
14.68000, 175.0
14.70000, 176.0
14.72000, 183.0
14.74000, 174.0
14.76000, 188.0
14.78000, 172.0
14.80000, 187.0
14.82000, 184.0
14.84000, 175.0
14.86000, 184.0
14.88000, 176.0
14.90000, 167.0
14.92000, 184.0
14.94000, 171.0
14.96000, 169.0
14.98000, 171.0
15.00000, 162.0
15.02000, 169.0
15.04000, 169.0
15.06000, 172.0
15.08000, 172.0
15.10000, 171.0
15.12000, 146.0
15.14000, 170.0
15.16000, 154.0
15.18000, 164.0
15.20000, 179.0
15.22000, 157.0
15.24000, 156.0
15.26000, 166.0
15.28000, 167.0
15.30000, 161.0
15.32000, 163.0
15.34000, 157.0
15.36000, 170.0
15.38000, 157.0
15.40000, 173.0
15.42000, 164.0
15.44000, 156.0
15.46000, 159.0
15.48000, 154.0
15.50000, 147.0
15.52000, 152.0
15.54000, 154.0
15.56000, 166.0
15.58000, 142.0
15.60000, 154.0
15.62000, 137.0
15.64000, 139.0
15.66000, 139.0
15.68000, 134.0
15.70000, 147.0
15.72000, 144.0
15.74000, 131.0
15.76000, 150.0
15.78000, 136.0
15.80000, 144.0
15.82000, 145.0
15.84000, 148.0
15.86000, 141.0
15.88000, 147.0
15.90000, 155.0
15.92000, 148.0
15.94000, 136.0
15.96000, 143.0
15.98000, 137.0
16.00000, 139.0
16.02000, 141.0
16.04000, 140.0
16.06000, 138.0
16.08000, 135.0
16.10000, 129.0
16.12000, 136.0
16.14000, 125.0
16.16000, 126.0
16.18000, 141.0
16.20000, 134.0
16.22000, 136.0
16.24000, 130.0
16.26000, 126.0
16.28000, 120.0
16.30000, 130.0
16.32000, 126.0
16.34000, 136.0
16.36000, 119.0
16.38000, 122.0
16.40000, 134.0
16.42000, 117.0
16.44000, 126.0
16.46000, 125.0
16.48000, 127.0
16.50000, 132.0
16.52000, 121.0
16.54000, 122.0
16.56000, 130.0
16.58000, 116.0
16.60000, 132.0
16.62000, 112.0
16.64000, 114.0
16.66000, 118.0
16.68000, 122.0
16.70000, 125.0
16.72000, 115.0
16.74000, 127.0
16.76000, 108.0
16.78000, 124.0
16.80000, 137.0
16.82000, 109.0
16.84000, 117.0
16.86000, 114.0
16.88000, 112.0
16.90000, 121.0
16.92000, 108.0
16.94000, 112.0
16.96000, 106.0
16.98000, 126.0
17.00000, 112.0
17.02000, 109.0
17.04000, 118.0
17.06000, 116.0
17.08000, 101.0
17.10000, 110.0
17.12000, 90.0
17.14000, 106.0
17.16000, 119.0
17.18000, 102.0
17.20000, 111.0
17.22000, 91.0
17.24000, 103.0
17.26000, 110.0
17.28000, 104.0
17.30000, 98.0
17.32000, 95.0
17.34000, 95.0
17.36000, 99.0
17.38000, 103.0
17.40000, 97.0
17.42000, 92.0
17.44000, 96.0
17.46000, 106.0
17.48000, 106.0
17.50000, 109.0
17.52000, 103.0
17.54000, 100.0
17.56000, 87.0
17.58000, 96.0
17.60000, 92.0
17.62000, 104.0
17.64000, 101.0
17.66000, 94.0
17.68000, 121.0
17.70000, 95.0
17.72000, 86.0
17.74000, 97.0
17.76000, 100.0
17.78000, 97.0
17.80000, 110.0
17.82000, 97.0
17.84000, 92.0
17.86000, 76.0
17.88000, 88.0
17.90000, 89.0
17.92000, 96.0
17.94000, 89.0
17.96000, 90.0
17.98000, 87.0
18.00000, 87.0
18.02000, 91.0
18.04000, 87.0
18.06000, 98.0
18.08000, 87.0
18.10000, 86.0
18.12000, 85.0
18.14000, 87.0
18.16000, 91.0
18.18000, 96.0
18.20000, 82.0
18.22000, 92.0
18.24000, 93.0
18.26000, 81.0
18.28000, 84.0
18.30000, 81.0
18.32000, 75.0
18.34000, 85.0
18.36000, 80.0
18.38000, 75.0
18.40000, 98.0
18.42000, 82.0
18.44000, 82.0
18.46000, 73.0
18.48000, 81.0
18.50000, 75.0
18.52000, 88.0
18.54000, 77.0
18.56000, 89.0
18.58000, 83.0
18.60000, 77.0
18.62000, 73.0
18.64000, 69.0
18.66000, 91.0
18.68000, 76.0
18.70000, 81.0
18.72000, 67.0
18.74000, 78.0
18.76000, 75.0
18.78000, 72.0
18.80000, 85.0
18.82000, 79.0
18.84000, 82.0
18.86000, 77.0
18.88000, 73.0
18.90000, 66.0
18.92000, 59.0
18.94000, 69.0
18.96000, 65.0
18.98000, 76.0
19.00000, 67.0
19.02000, 67.0
19.04000, 73.0
19.06000, 66.0
19.08000, 51.0
19.10000, 51.0
19.12000, 61.0
19.14000, 74.0
19.16000, 66.0
19.18000, 63.0
19.20000, 59.0
19.22000, 72.0
19.24000, 59.0
19.26000, 62.0
19.28000, 64.0
19.30000, 62.0
19.32000, 70.0
19.34000, 75.0
19.36000, 51.0
19.38000, 58.0
19.40000, 52.0
19.42000, 75.0
19.44000, 63.0
19.46000, 68.0
19.48000, 54.0
19.50000, 74.0
19.52000, 53.0
19.54000, 60.0
19.56000, 64.0
19.58000, 61.0
19.60000, 51.0
19.62000, 66.0
19.64000, 59.0
19.66000, 52.0
19.68000, 70.0
19.70000, 63.0
19.72000, 52.0
19.74000, 53.0
19.76000, 54.0
19.78000, 50.0
19.80000, 64.0
19.82000, 58.0
19.84000, 49.0
19.86000, 60.0
19.88000, 58.0
19.90000, 48.0
19.92000, 62.0
19.94000, 58.0
19.96000, 48.0
19.98000, 63.0
20.00000, 59.0
20.02000, 53.0
20.04000, 49.0
20.06000, 51.0
20.08000, 55.0
20.10000, 53.0
20.12000, 54.0
20.14000, 47.0
20.16000, 46.0
20.18000, 49.0
20.20000, 50.0
20.22000, 42.0
20.24000, 54.0
20.26000, 50.0
20.27000, 43.0
#ENDOFDATA   :